ref_accel_x (m/s^2),ref_accel_y (m/s^2),ref_accel_z (m/s^2)
0.000000000000000000e+00,-7.728464431007833800e-04,-9.794826232527723775e+00
0.000000000000000000e+00,-7.728464625678926198e-04,-9.794826233259946946e+00
0.000000000000000000e+00,-7.728464820350016426e-04,-9.794826233992171893e+00
0.000000000000000000e+00,-7.728465015021106655e-04,-9.794826234724396841e+00
0.000000000000000000e+00,-7.728465209692193631e-04,-9.794826235456620012e+00
0.000000000000000000e+00,-7.728465404363278439e-04,-9.794826236188843183e+00
0.000000000000000000e+00,-7.728465599034359994e-04,-9.794826236921066354e+00
0.000000000000000000e+00,-7.728465793705440465e-04,-9.794826237653291301e+00
0.000000000000000000e+00,-7.728465988376519852e-04,-9.794826238385512696e+00
0.000000000000000000e+00,-7.728466183047595986e-04,-9.794826239117739419e+00
0.000000000000000000e+00,-7.728466377718671036e-04,-9.794826239849964367e+00
0.000000000000000000e+00,-7.728466572389743917e-04,-9.794826240582185761e+00
0.000000000000000000e+00,-7.728466767060815715e-04,-9.794826241314410709e+00
0.000000000000000000e+00,-7.728466961731884259e-04,-9.794826242046635656e+00
0.000000000000000000e+00,-7.728467156402952804e-04,-9.794826242778858827e+00
0.000000000000000000e+00,-7.728467351074018096e-04,-9.794826243511080222e+00
0.000000000000000000e+00,-7.728467545745081220e-04,-9.794826244243306945e+00
0.000000000000000000e+00,-7.728467740416142175e-04,-9.794826244975531893e+00
0.000000000000000000e+00,-7.728467935087203131e-04,-9.794826245707755064e+00
0.000000000000000000e+00,-7.728468129758259749e-04,-9.794826246439978235e+00
0.000000000000000000e+00,-7.728468324429314199e-04,-9.794826247172201406e+00
0.000000000000000000e+00,-7.728468519100369733e-04,-9.794826247904426353e+00
0.000000000000000000e+00,-7.728468713771419847e-04,-9.794826248636649524e+00
0.000000000000000000e+00,-7.728468908442471044e-04,-9.794826249368874471e+00
0.000000000000000000e+00,-7.728469103113518989e-04,-9.794826250101099419e+00
0.000000000000000000e+00,-7.728469297784563681e-04,-9.794826250833322590e+00
0.000000000000000000e+00,-7.728469492455608374e-04,-9.794826251565547537e+00
0.000000000000000000e+00,-7.728469687126649813e-04,-9.794826252297768931e+00
0.000000000000000000e+00,-7.728469881797691253e-04,-9.794826253029993879e+00
0.000000000000000000e+00,-7.728470076468727272e-04,-9.794826253762220603e+00
0.000000000000000000e+00,-7.728470271139764374e-04,-9.794826254494443774e+00
0.000000000000000000e+00,-7.728470465810797141e-04,-9.794826255226666945e+00
0.000000000000000000e+00,-7.728470660481830991e-04,-9.794826255958890115e+00
0.000000000000000000e+00,-7.728470855152861588e-04,-9.794826256691116839e+00
0.000000000000000000e+00,-7.728471049823890018e-04,-9.794826257423340010e+00
0.000000000000000000e+00,-7.728471244494916279e-04,-9.794826258155563181e+00
0.000000000000000000e+00,-7.728471439165939287e-04,-9.794826258887788129e+00
0.000000000000000000e+00,-7.728471633836964463e-04,-9.794826259620013076e+00
0.000000000000000000e+00,-7.728471828507984219e-04,-9.794826260352234470e+00
0.000000000000000000e+00,-7.728472023179001806e-04,-9.794826261084459418e+00
0.000000000000000000e+00,-7.728472217850019393e-04,-9.794826261816687918e+00
0.000000000000000000e+00,-7.728472412521034812e-04,-9.794826262548911089e+00
0.000000000000000000e+00,-7.728472607192046978e-04,-9.794826263281132483e+00
0.000000000000000000e+00,-7.728472801863056976e-04,-9.794826264013355654e+00
0.000000000000000000e+00,-7.728472996534068058e-04,-9.794826264745582378e+00
0.000000000000000000e+00,-7.728473191205072635e-04,-9.794826265477809102e+00
0.000000000000000000e+00,-7.728473385876079380e-04,-9.794826266210030496e+00
0.000000000000000000e+00,-7.728473580547081789e-04,-9.794826266942255444e+00
0.000000000000000000e+00,-7.728473775218082029e-04,-9.794826267674478615e+00
0.000000000000000000e+00,-7.728473969889082269e-04,-9.794826268406705339e+00
0.000000000000000000e+00,-7.728474164560078172e-04,-9.794826269138928510e+00
0.000000000000000000e+00,-7.728474359231076243e-04,-9.794826269871151680e+00
0.000000000000000000e+00,-7.728474553902067810e-04,-9.794826270603376628e+00
0.000000000000000000e+00,-7.728474748573060460e-04,-9.794826271335601575e+00
0.000000000000000000e+00,-7.728474943244050942e-04,-9.794826272067826523e+00
0.000000000000000000e+00,-7.728475137915037088e-04,-9.794826272800047917e+00
0.000000000000000000e+00,-7.728475332586021065e-04,-9.794826273532274641e+00
0.000000000000000000e+00,-7.728475527257006126e-04,-9.794826274264497812e+00
0.000000000000000000e+00,-7.728475721927989019e-04,-9.794826274996722759e+00
0.000000000000000000e+00,-7.728475916598967575e-04,-9.794826275728949483e+00
0.000000000000000000e+00,-7.728476111269948299e-04,-9.794826276461172654e+00
0.000000000000000000e+00,-7.728476305940922518e-04,-9.794826277193397601e+00
0.000000000000000000e+00,-7.728476500611895653e-04,-9.794826277925618996e+00
0.000000000000000000e+00,-7.728476695282868788e-04,-9.794826278657847496e+00
0.000000000000000000e+00,-7.728476889953838670e-04,-9.794826279390070667e+00
0.000000000000000000e+00,-7.728477084624805300e-04,-9.794826280122293838e+00
0.000000000000000000e+00,-7.728477279295771930e-04,-9.794826280854518785e+00
0.000000000000000000e+00,-7.728477473966737475e-04,-9.794826281586745509e+00
0.000000000000000000e+00,-7.728477668637698684e-04,-9.794826282318970456e+00
0.000000000000000000e+00,-7.728477863308659893e-04,-9.794826283051191851e+00
0.000000000000000000e+00,-7.728478057979617849e-04,-9.794826283783416798e+00
0.000000000000000000e+00,-7.728478252650575805e-04,-9.794826284515643522e+00
0.000000000000000000e+00,-7.728478447321528340e-04,-9.794826285247866693e+00
0.000000000000000000e+00,-7.728478641992483043e-04,-9.794826285980091640e+00
0.000000000000000000e+00,-7.728478836663433410e-04,-9.794826286712314811e+00
0.000000000000000000e+00,-7.728479031334380524e-04,-9.794826287444543311e+00
0.000000000000000000e+00,-7.728479226005328722e-04,-9.794826288176764706e+00
0.000000000000000000e+00,-7.728479420676273668e-04,-9.794826288908989653e+00
0.000000000000000000e+00,-7.728479615347215361e-04,-9.794826289641212824e+00
0.000000000000000000e+00,-7.728479810018157054e-04,-9.794826290373439548e+00
0.000000000000000000e+00,-7.728480004689094410e-04,-9.794826291105664495e+00
0.000000000000000000e+00,-7.728480199360033935e-04,-9.794826291837887666e+00
0.000000000000000000e+00,-7.728480394030968039e-04,-9.794826292570114390e+00
0.000000000000000000e+00,-7.728480588701902142e-04,-9.794826293302339337e+00
0.000000000000000000e+00,-7.728480783372830825e-04,-9.794826294034562508e+00
0.000000000000000000e+00,-7.728480978043762760e-04,-9.794826294766787456e+00
0.000000000000000000e+00,-7.728481172714688190e-04,-9.794826295499014179e+00
0.000000000000000000e+00,-7.728481367385614705e-04,-9.794826296231239127e+00
0.000000000000000000e+00,-7.728481562056539050e-04,-9.794826296963460521e+00
0.000000000000000000e+00,-7.728481756727459059e-04,-9.794826297695685469e+00
0.000000000000000000e+00,-7.728481951398379068e-04,-9.794826298427913969e+00
0.000000000000000000e+00,-7.728482146069296909e-04,-9.794826299160135363e+00
0.000000000000000000e+00,-7.728482340740212581e-04,-9.794826299892360311e+00
0.000000000000000000e+00,-7.728482535411127169e-04,-9.794826300624587034e+00
0.000000000000000000e+00,-7.728482730082039589e-04,-9.794826301356811982e+00
0.000000000000000000e+00,-7.728482924752947672e-04,-9.794826302089036929e+00
0.000000000000000000e+00,-7.728483119423855754e-04,-9.794826302821260100e+00
0.000000000000000000e+00,-7.728483314094762753e-04,-9.794826303553485047e+00
0.000000000000000000e+00,-7.728483508765667583e-04,-9.794826304285709995e+00
0.000000000000000000e+00,-7.728483703436569161e-04,-9.794826305017934942e+00
0.000000000000000000e+00,-7.728483898107468570e-04,-9.794826305750159889e+00
0.000000000000000000e+00,-7.728484092778367979e-04,-9.794826306482383060e+00
0.000000000000000000e+00,-7.728484287449264136e-04,-9.794826307214609784e+00
0.000000000000000000e+00,-7.728484482120157040e-04,-9.794826307946836508e+00
0.000000000000000000e+00,-7.728484676791049944e-04,-9.794826308679059679e+00
0.000000000000000000e+00,-7.728484871461940679e-04,-9.794826309411286402e+00
0.000000000000000000e+00,-7.728485066132830331e-04,-9.794826310143511350e+00
0.000000000000000000e+00,-7.728485260803716729e-04,-9.794826310875734521e+00
0.000000000000000000e+00,-7.728485455474600960e-04,-9.794826311607957692e+00
0.000000000000000000e+00,-7.728485650145483022e-04,-9.794826312340186192e+00
0.000000000000000000e+00,-7.728485844816362915e-04,-9.794826313072411139e+00
0.000000000000000000e+00,-7.728486039487242809e-04,-9.794826313804634310e+00
0.000000000000000000e+00,-7.728486234158120534e-04,-9.794826314536861034e+00
0.000000000000000000e+00,-7.728486428828995006e-04,-9.794826315269085981e+00
0.000000000000000000e+00,-7.728486623499867311e-04,-9.794826316001310929e+00
0.000000000000000000e+00,-7.728486818170739615e-04,-9.794826316733537652e+00
0.000000000000000000e+00,-7.728487012841608666e-04,-9.794826317465760823e+00
0.000000000000000000e+00,-7.728487207512475549e-04,-9.794826318197987547e+00
0.000000000000000000e+00,-7.728487402183339180e-04,-9.794826318930212494e+00
0.000000000000000000e+00,-7.728487596854204979e-04,-9.794826319662435665e+00
0.000000000000000000e+00,-7.728487791525065357e-04,-9.794826320394660613e+00
0.000000000000000000e+00,-7.728487986195923566e-04,-9.794826321126887336e+00
0.000000000000000000e+00,-7.728488180866781776e-04,-9.794826321859112284e+00
0.000000000000000000e+00,-7.728488375537638901e-04,-9.794826322591335455e+00
0.000000000000000000e+00,-7.728488570208491689e-04,-9.794826323323562178e+00
0.000000000000000000e+00,-7.728488764879343394e-04,-9.794826324055787126e+00
0.000000000000000000e+00,-7.728488959550192930e-04,-9.794826324788010297e+00
0.000000000000000000e+00,-7.728489154221040297e-04,-9.794826325520237020e+00
0.000000000000000000e+00,-7.728489348891886580e-04,-9.794826326252461968e+00
0.000000000000000000e+00,-7.728489543562729611e-04,-9.794826326984686915e+00
0.000000000000000000e+00,-7.728489738233572642e-04,-9.794826327716913639e+00
0.000000000000000000e+00,-7.728489932904411336e-04,-9.794826328449136810e+00
0.000000000000000000e+00,-7.728490127575250029e-04,-9.794826329181365310e+00
0.000000000000000000e+00,-7.728490322246085471e-04,-9.794826329913590257e+00
0.000000000000000000e+00,-7.728490516916920912e-04,-9.794826330645813428e+00
0.000000000000000000e+00,-7.728490711587752016e-04,-9.794826331378040152e+00
0.000000000000000000e+00,-7.728490906258583121e-04,-9.794826332110265099e+00
0.000000000000000000e+00,-7.728491100929409888e-04,-9.794826332842490046e+00
0.000000000000000000e+00,-7.728491295600238824e-04,-9.794826333574716770e+00
0.000000000000000000e+00,-7.728491490271061255e-04,-9.794826334306939941e+00
0.000000000000000000e+00,-7.728491684941883686e-04,-9.794826335039168441e+00
0.000000000000000000e+00,-7.728491879612703949e-04,-9.794826335771391612e+00
0.000000000000000000e+00,-7.728492074283523127e-04,-9.794826336503616560e+00
0.000000000000000000e+00,-7.728492268954340137e-04,-9.794826337235843283e+00
0.000000000000000000e+00,-7.728492463625153894e-04,-9.794826337968068231e+00
0.000000000000000000e+00,-7.728492658295967651e-04,-9.794826338700293178e+00
0.000000000000000000e+00,-7.728492852966779240e-04,-9.794826339432519902e+00
0.000000000000000000e+00,-7.728493047637586492e-04,-9.794826340164744849e+00
0.000000000000000000e+00,-7.728493242308393744e-04,-9.794826340896971573e+00
0.000000000000000000e+00,-7.728493436979198827e-04,-9.794826341629194744e+00
0.000000000000000000e+00,-7.728493631650002827e-04,-9.794826342361419691e+00
0.000000000000000000e+00,-7.728493826320804658e-04,-9.794826343093648191e+00
0.000000000000000000e+00,-7.728494020991603236e-04,-9.794826343825871362e+00
0.000000000000000000e+00,-7.728494215662399646e-04,-9.794826344558098086e+00
0.000000000000000000e+00,-7.728494410333193888e-04,-9.794826345290321257e+00
0.000000000000000000e+00,-7.728494605003989213e-04,-9.794826346022547980e+00
0.000000000000000000e+00,-7.728494799674780202e-04,-9.794826346754774704e+00
0.000000000000000000e+00,-7.728494994345570107e-04,-9.794826347486997875e+00
0.000000000000000000e+00,-7.728495189016357843e-04,-9.794826348219224599e+00
0.000000000000000000e+00,-7.728495383687142327e-04,-9.794826348951451322e+00
0.000000000000000000e+00,-7.728495578357926811e-04,-9.794826349683676270e+00
0.000000000000000000e+00,-7.728495773028708042e-04,-9.794826350415901217e+00
0.000000000000000000e+00,-7.728495967699488189e-04,-9.794826351148124388e+00
0.000000000000000000e+00,-7.728496162370265083e-04,-9.794826351880354665e+00
0.000000000000000000e+00,-7.728496357041041978e-04,-9.794826352612579612e+00
0.000000000000000000e+00,-7.728496551711815619e-04,-9.794826353344804559e+00
0.000000000000000000e+00,-7.728496746382589261e-04,-9.794826354077029507e+00
0.000000000000000000e+00,-7.728496941053357482e-04,-9.794826354809258007e+00
0.000000000000000000e+00,-7.728497135724124618e-04,-9.794826355541481178e+00
0.000000000000000000e+00,-7.728497330394892839e-04,-9.794826356273706125e+00
0.000000000000000000e+00,-7.728497525065655639e-04,-9.794826357005932849e+00
0.000000000000000000e+00,-7.728497719736418439e-04,-9.794826357738157796e+00
0.000000000000000000e+00,-7.728497914407176901e-04,-9.794826358470384520e+00
0.000000000000000000e+00,-7.728498109077936449e-04,-9.794826359202607691e+00
0.000000000000000000e+00,-7.728498303748694911e-04,-9.794826359934836191e+00
0.000000000000000000e+00,-7.728498498419450122e-04,-9.794826360667062914e+00
0.000000000000000000e+00,-7.728498693090198827e-04,-9.794826361399287862e+00
0.000000000000000000e+00,-7.728498887760950785e-04,-9.794826362131512809e+00
0.000000000000000000e+00,-7.728499082431700574e-04,-9.794826362863737756e+00
0.000000000000000000e+00,-7.728499277102447110e-04,-9.794826363595966257e+00
0.000000000000000000e+00,-7.728499471773191479e-04,-9.794826364328191204e+00
0.000000000000000000e+00,-7.728499666443934763e-04,-9.794826365060416151e+00
0.000000000000000000e+00,-7.728499861114675878e-04,-9.794826365792642875e+00
0.000000000000000000e+00,-7.728500055785415910e-04,-9.794826366524869599e+00
0.000000000000000000e+00,-7.728500250456150520e-04,-9.794826367257092770e+00
0.000000000000000000e+00,-7.728500445126887299e-04,-9.794826367989319493e+00
0.000000000000000000e+00,-7.728500639797619741e-04,-9.794826368721544441e+00
0.000000000000000000e+00,-7.728500834468352183e-04,-9.794826369453771164e+00
0.000000000000000000e+00,-7.728501029139080289e-04,-9.794826370185997888e+00
0.000000000000000000e+00,-7.728501223809807310e-04,-9.794826370918222835e+00
0.000000000000000000e+00,-7.728501418480532162e-04,-9.794826371650449559e+00
0.000000000000000000e+00,-7.728501613151255931e-04,-9.794826372382674506e+00
0.000000000000000000e+00,-7.728501807821977531e-04,-9.794826373114899454e+00
0.000000000000000000e+00,-7.728502002492696962e-04,-9.794826373847126177e+00
0.000000000000000000e+00,-7.728502197163413141e-04,-9.794826374579354678e+00
0.000000000000000000e+00,-7.728502391834131489e-04,-9.794826375311577848e+00
0.000000000000000000e+00,-7.728502586504845499e-04,-9.794826376043806349e+00
0.000000000000000000e+00,-7.728502781175556257e-04,-9.794826376776031296e+00
0.000000000000000000e+00,-7.728502975846267015e-04,-9.794826377508258020e+00
0.000000000000000000e+00,-7.728503170516975605e-04,-9.794826378240482967e+00
0.000000000000000000e+00,-7.728503365187679858e-04,-9.794826378972707914e+00
0.000000000000000000e+00,-7.728503559858383026e-04,-9.794826379704934638e+00
0.000000000000000000e+00,-7.728503754529086195e-04,-9.794826380437161362e+00
0.000000000000000000e+00,-7.728503949199785027e-04,-9.794826381169386309e+00
0.000000000000000000e+00,-7.728504143870483858e-04,-9.794826381901613033e+00
0.000000000000000000e+00,-7.728504338541180522e-04,-9.794826382633837980e+00
0.000000000000000000e+00,-7.728504533211876101e-04,-9.794826383366064704e+00
0.000000000000000000e+00,-7.728504727882568428e-04,-9.794826384098291427e+00
0.000000000000000000e+00,-7.728504922553257502e-04,-9.794826384830518151e+00
0.000000000000000000e+00,-7.728505117223947660e-04,-9.794826385562744875e+00
0.000000000000000000e+00,-7.728505311894633481e-04,-9.794826386294971599e+00
0.000000000000000000e+00,-7.728505506565318218e-04,-9.794826387027194770e+00
0.000000000000000000e+00,-7.728505701236000787e-04,-9.794826387759421493e+00
0.000000000000000000e+00,-7.728505895906681187e-04,-9.794826388491648217e+00
0.000000000000000000e+00,-7.728506090577359419e-04,-9.794826389223874941e+00
0.000000000000000000e+00,-7.728506285248038735e-04,-9.794826389956099888e+00
0.000000000000000000e+00,-7.728506479918711546e-04,-9.794826390688330164e+00
0.000000000000000000e+00,-7.728506674589384357e-04,-9.794826391420555112e+00
0.000000000000000000e+00,-7.728506869260055000e-04,-9.794826392152780059e+00
0.000000000000000000e+00,-7.728507063930724558e-04,-9.794826392885006783e+00
0.000000000000000000e+00,-7.728507258601391948e-04,-9.794826393617233506e+00
0.000000000000000000e+00,-7.728507453272057169e-04,-9.794826394349460230e+00
0.000000000000000000e+00,-7.728507647942719138e-04,-9.794826395081683401e+00
0.000000000000000000e+00,-7.728507842613381107e-04,-9.794826395813910125e+00
0.000000000000000000e+00,-7.728508037284039824e-04,-9.794826396546138625e+00
0.000000000000000000e+00,-7.728508231954697456e-04,-9.794826397278363572e+00
0.000000000000000000e+00,-7.728508426625352919e-04,-9.794826398010588520e+00
0.000000000000000000e+00,-7.728508621296007299e-04,-9.794826398742817020e+00
0.000000000000000000e+00,-7.728508815966658426e-04,-9.794826399475041967e+00
0.000000000000000000e+00,-7.728509010637307384e-04,-9.794826400207268691e+00
0.000000000000000000e+00,-7.728509205307955258e-04,-9.794826400939497191e+00
0.000000000000000000e+00,-7.728509399978600964e-04,-9.794826401671720362e+00
0.000000000000000000e+00,-7.728509594649245586e-04,-9.794826402403948862e+00
0.000000000000000000e+00,-7.728509789319886955e-04,-9.794826403136175585e+00
0.000000000000000000e+00,-7.728509983990528324e-04,-9.794826403868400533e+00
0.000000000000000000e+00,-7.728510178661164272e-04,-9.794826404600627257e+00
0.000000000000000000e+00,-7.728510373331801304e-04,-9.794826405332855757e+00
0.000000000000000000e+00,-7.728510568002435084e-04,-9.794826406065078928e+00
0.000000000000000000e+00,-7.728510762673067780e-04,-9.794826406797307428e+00
0.000000000000000000e+00,-7.728510957343697222e-04,-9.794826407529535928e+00
0.000000000000000000e+00,-7.728511152014327749e-04,-9.794826408261760875e+00
0.000000000000000000e+00,-7.728511346684950687e-04,-9.794826408993987599e+00
0.000000000000000000e+00,-7.728511541355575793e-04,-9.794826409726210770e+00
0.000000000000000000e+00,-7.728511736026199815e-04,-9.794826410458441046e+00
0.000000000000000000e+00,-7.728511930696819500e-04,-9.794826411190665993e+00
0.000000000000000000e+00,-7.728512125367438101e-04,-9.794826411922890941e+00
0.000000000000000000e+00,-7.728512320038054533e-04,-9.794826412655119441e+00
0.000000000000000000e+00,-7.728512514708668797e-04,-9.794826413387346165e+00
0.000000000000000000e+00,-7.728512709379281977e-04,-9.794826414119574665e+00
0.000000000000000000e+00,-7.728512904049892988e-04,-9.794826414851797836e+00
0.000000000000000000e+00,-7.728513098720500747e-04,-9.794826415584026336e+00
0.000000000000000000e+00,-7.728513293391108506e-04,-9.794826416316254836e+00
0.000000000000000000e+00,-7.728513488061714096e-04,-9.794826417048478007e+00
0.000000000000000000e+00,-7.728513682732317518e-04,-9.794826417780706507e+00
0.000000000000000000e+00,-7.728513877402917688e-04,-9.794826418512929678e+00
0.000000000000000000e+00,-7.728514072073515689e-04,-9.794826419245159954e+00
0.000000000000000000e+00,-7.728514266744113690e-04,-9.794826419977384901e+00
0.000000000000000000e+00,-7.728514461414709522e-04,-9.794826420709609849e+00
0.000000000000000000e+00,-7.728514656085302102e-04,-9.794826421441838349e+00
0.000000000000000000e+00,-7.728514850755894682e-04,-9.794826422174065073e+00
0.000000000000000000e+00,-7.728515045426484010e-04,-9.794826422906291796e+00
0.000000000000000000e+00,-7.728515240097071168e-04,-9.794826423638520296e+00
0.000000000000000000e+00,-7.728515434767655075e-04,-9.794826424370747020e+00
0.000000000000000000e+00,-7.728515629438240065e-04,-9.794826425102971967e+00
0.000000000000000000e+00,-7.728515824108820719e-04,-9.794826425835198691e+00
0.000000000000000000e+00,-7.728516018779402457e-04,-9.794826426567427191e+00
0.000000000000000000e+00,-7.728516213449979858e-04,-9.794826427299653915e+00
0.000000000000000000e+00,-7.728516408120556175e-04,-9.794826428031878862e+00
0.000000000000000000e+00,-7.728516602791128155e-04,-9.794826428764107362e+00
0.000000000000000000e+00,-7.728516797461701220e-04,-9.794826429496330533e+00
0.000000000000000000e+00,-7.728516992132269947e-04,-9.794826430228560810e+00
0.000000000000000000e+00,-7.728517186802838675e-04,-9.794826430960787533e+00
0.000000000000000000e+00,-7.728517381473405234e-04,-9.794826431693012481e+00
0.000000000000000000e+00,-7.728517576143967456e-04,-9.794826432425239204e+00
0.000000000000000000e+00,-7.728517770814530763e-04,-9.794826433157469481e+00
0.000000000000000000e+00,-7.728517965485090816e-04,-9.794826433889692652e+00
0.000000000000000000e+00,-7.728518160155650870e-04,-9.794826434621921152e+00
0.000000000000000000e+00,-7.728518354826206587e-04,-9.794826435354147876e+00
0.000000000000000000e+00,-7.728518549496761220e-04,-9.794826436086374599e+00
0.000000000000000000e+00,-7.728518744167312601e-04,-9.794826436818603099e+00
0.000000000000000000e+00,-7.728518938837863981e-04,-9.794826437550828047e+00
0.000000000000000000e+00,-7.728519133508413193e-04,-9.794826438283054770e+00
0.000000000000000000e+00,-7.728519328178958068e-04,-9.794826439015283270e+00
0.000000000000000000e+00,-7.728519522849502943e-04,-9.794826439747509994e+00
0.000000000000000000e+00,-7.728519717520045650e-04,-9.794826440479734941e+00
0.000000000000000000e+00,-7.728519912190588356e-04,-9.794826441211965218e+00
0.000000000000000000e+00,-7.728520106861125642e-04,-9.794826441944191942e+00
0.000000000000000000e+00,-7.728520301531665096e-04,-9.794826442676416889e+00
0.000000000000000000e+00,-7.728520496202199129e-04,-9.794826443408645389e+00
0.000000000000000000e+00,-7.728520690872730994e-04,-9.794826444140872113e+00
0.000000000000000000e+00,-7.728520885543263942e-04,-9.794826444873098836e+00
0.000000000000000000e+00,-7.728521080213791470e-04,-9.794826445605327336e+00
0.000000000000000000e+00,-7.728521274884318998e-04,-9.794826446337552284e+00
0.000000000000000000e+00,-7.728521469554845442e-04,-9.794826447069782560e+00
0.000000000000000000e+00,-7.728521664225368633e-04,-9.794826447802009284e+00
0.000000000000000000e+00,-7.728521858895889655e-04,-9.794826448534234231e+00
0.000000000000000000e+00,-7.728522053566408510e-04,-9.794826449266462731e+00
0.000000000000000000e+00,-7.728522248236927364e-04,-9.794826449998689455e+00
0.000000000000000000e+00,-7.728522442907441881e-04,-9.794826450730914402e+00
0.000000000000000000e+00,-7.728522637577954230e-04,-9.794826451463142902e+00
0.000000000000000000e+00,-7.728522832248467664e-04,-9.794826452195369626e+00
0.000000000000000000e+00,-7.728523026918976760e-04,-9.794826452927596350e+00
0.000000000000000000e+00,-7.728523221589485856e-04,-9.794826453659824850e+00
0.000000000000000000e+00,-7.728523416259990616e-04,-9.794826454392051573e+00
0.000000000000000000e+00,-7.728523610930494291e-04,-9.794826455124278297e+00
0.000000000000000000e+00,-7.728523805600996882e-04,-9.794826455856506797e+00
0.000000000000000000e+00,-7.728524000271495137e-04,-9.794826456588733521e+00
0.000000000000000000e+00,-7.728524194941994475e-04,-9.794826457320960245e+00
0.000000000000000000e+00,-7.728524389612491646e-04,-9.794826458053188745e+00
0.000000000000000000e+00,-7.728524584282984479e-04,-9.794826458785415468e+00
0.000000000000000000e+00,-7.728524778953477312e-04,-9.794826459517642192e+00
0.000000000000000000e+00,-7.728524973623967977e-04,-9.794826460249868916e+00
0.000000000000000000e+00,-7.728525168294456474e-04,-9.794826460982097416e+00
0.000000000000000000e+00,-7.728525362964942802e-04,-9.794826461714324140e+00
0.000000000000000000e+00,-7.728525557635426962e-04,-9.794826462446550863e+00
0.000000000000000000e+00,-7.728525752305910037e-04,-9.794826463178777587e+00
0.000000000000000000e+00,-7.728525946976389860e-04,-9.794826463911006087e+00
0.000000000000000000e+00,-7.728526141646870767e-04,-9.794826464643234587e+00
0.000000000000000000e+00,-7.728526336317347338e-04,-9.794826465375459534e+00
0.000000000000000000e+00,-7.728526530987820655e-04,-9.794826466107688034e+00
0.000000000000000000e+00,-7.728526725658293973e-04,-9.794826466839916534e+00
0.000000000000000000e+00,-7.728526920328765122e-04,-9.794826467572143258e+00
0.000000000000000000e+00,-7.728527114999234103e-04,-9.794826468304369982e+00
0.000000000000000000e+00,-7.728527309669700916e-04,-9.794826469036598482e+00
0.000000000000000000e+00,-7.728527504340166644e-04,-9.794826469768826982e+00
0.000000000000000000e+00,-7.728527699010629120e-04,-9.794826470501051929e+00
0.000000000000000000e+00,-7.728527893681089427e-04,-9.794826471233280429e+00
0.000000000000000000e+00,-7.728528088351550819e-04,-9.794826471965508929e+00
0.000000000000000000e+00,-7.728528283022007873e-04,-9.794826472697733877e+00
0.000000000000000000e+00,-7.728528477692461676e-04,-9.794826473429962377e+00
0.000000000000000000e+00,-7.728528672362916562e-04,-9.794826474162190877e+00
0.000000000000000000e+00,-7.728528867033367111e-04,-9.794826474894419377e+00
0.000000000000000000e+00,-7.728529061703816577e-04,-9.794826475626644324e+00
0.000000000000000000e+00,-7.728529256374263873e-04,-9.794826476358872824e+00
0.000000000000000000e+00,-7.728529451044709002e-04,-9.794826477091101324e+00
0.000000000000000000e+00,-7.728529645715155215e-04,-9.794826477823328048e+00
0.000000000000000000e+00,-7.728529840385596006e-04,-9.794826478555554772e+00
0.000000000000000000e+00,-7.728530035056035714e-04,-9.794826479287783272e+00
0.000000000000000000e+00,-7.728530229726474337e-04,-9.794826480020009996e+00
0.000000000000000000e+00,-7.728530424396908623e-04,-9.794826480752238496e+00
0.000000000000000000e+00,-7.728530619067345078e-04,-9.794826481484466996e+00
0.000000000000000000e+00,-7.728530813737776112e-04,-9.794826482216691943e+00
0.000000000000000000e+00,-7.728531008408206062e-04,-9.794826482948920443e+00
0.000000000000000000e+00,-7.728531203078634927e-04,-9.794826483681148943e+00
0.000000000000000000e+00,-7.728531397749060540e-04,-9.794826484413373890e+00
0.000000000000000000e+00,-7.728531592419485069e-04,-9.794826485145602391e+00
0.000000000000000000e+00,-7.728531787089907429e-04,-9.794826485877830891e+00
0.000000000000000000e+00,-7.728531981760326536e-04,-9.794826486610061167e+00
0.000000000000000000e+00,-7.728532176430747812e-04,-9.794826487342287891e+00
0.000000000000000000e+00,-7.728532371101162583e-04,-9.794826488074512838e+00
0.000000000000000000e+00,-7.728532565771577354e-04,-9.794826488806744891e+00
0.000000000000000000e+00,-7.728532760441991041e-04,-9.794826489538969838e+00
0.000000000000000000e+00,-7.728532955112400391e-04,-9.794826490271198338e+00
0.000000000000000000e+00,-7.728533149782810825e-04,-9.794826491003425062e+00
0.000000000000000000e+00,-7.728533344453215837e-04,-9.794826491735653562e+00
0.000000000000000000e+00,-7.728533539123621935e-04,-9.794826492467882062e+00
0.000000000000000000e+00,-7.728533733794024779e-04,-9.794826493200110562e+00
0.000000000000000000e+00,-7.728533928464426540e-04,-9.794826493932337286e+00
0.000000000000000000e+00,-7.728534123134823963e-04,-9.794826494664564009e+00
0.000000000000000000e+00,-7.728534317805222471e-04,-9.794826495396792509e+00
0.000000000000000000e+00,-7.728534512475616642e-04,-9.794826496129021010e+00
0.000000000000000000e+00,-7.728534707146009729e-04,-9.794826496861249510e+00
0.000000000000000000e+00,-7.728534901816402816e-04,-9.794826497593478010e+00
0.000000000000000000e+00,-7.728535096486790481e-04,-9.794826498325704733e+00
0.000000000000000000e+00,-7.728535291157178147e-04,-9.794826499057931457e+00
0.000000000000000000e+00,-7.728535485827563644e-04,-9.794826499790159957e+00
0.000000000000000000e+00,-7.728535680497945889e-04,-9.794826500522388457e+00
0.000000000000000000e+00,-7.728535875168327050e-04,-9.794826501254616957e+00
0.000000000000000000e+00,-7.728536069838708210e-04,-9.794826501986841905e+00
0.000000000000000000e+00,-7.728536264509087202e-04,-9.794826502719070405e+00
0.000000000000000000e+00,-7.728536459179462942e-04,-9.794826503451300681e+00
0.000000000000000000e+00,-7.728536653849834345e-04,-9.794826504183529181e+00
0.000000000000000000e+00,-7.728536848520206832e-04,-9.794826504915755905e+00
0.000000000000000000e+00,-7.728537043190577150e-04,-9.794826505647982628e+00
0.000000000000000000e+00,-7.728537237860946384e-04,-9.794826506380212905e+00
0.000000000000000000e+00,-7.728537432531310198e-04,-9.794826507112437852e+00
0.000000000000000000e+00,-7.728537627201676179e-04,-9.794826507844666352e+00
0.000000000000000000e+00,-7.728537821872038908e-04,-9.794826508576896629e+00
0.000000000000000000e+00,-7.728538016542397301e-04,-9.794826509309125129e+00
0.000000000000000000e+00,-7.728538211212757861e-04,-9.794826510041350076e+00
0.000000000000000000e+00,-7.728538405883111917e-04,-9.794826510773578576e+00
0.000000000000000000e+00,-7.728538600553468141e-04,-9.794826511505808853e+00
0.000000000000000000e+00,-7.728538795223817860e-04,-9.794826512238035576e+00
0.000000000000000000e+00,-7.728538989894169747e-04,-9.794826512970264076e+00
0.000000000000000000e+00,-7.728539184564518381e-04,-9.794826513702492576e+00
0.000000000000000000e+00,-7.728539379234864847e-04,-9.794826514434719300e+00
0.000000000000000000e+00,-7.728539573905208061e-04,-9.794826515166947800e+00
0.000000000000000000e+00,-7.728539768575551274e-04,-9.794826515899176300e+00
0.000000000000000000e+00,-7.728539963245893403e-04,-9.794826516631404800e+00
0.000000000000000000e+00,-7.728540157916233364e-04,-9.794826517363633300e+00
0.000000000000000000e+00,-7.728540352586568988e-04,-9.794826518095861800e+00
0.000000000000000000e+00,-7.728540547256902444e-04,-9.794826518828088524e+00
0.000000000000000000e+00,-7.728540741927238068e-04,-9.794826519560315248e+00
0.000000000000000000e+00,-7.728540936597567187e-04,-9.794826520292545524e+00
0.000000000000000000e+00,-7.728541131267897390e-04,-9.794826521024774024e+00
0.000000000000000000e+00,-7.728541325938225424e-04,-9.794826521757002524e+00
0.000000000000000000e+00,-7.728541520608551291e-04,-9.794826522489231024e+00
0.000000000000000000e+00,-7.728541715278872820e-04,-9.794826523221459524e+00
0.000000000000000000e+00,-7.728541909949194350e-04,-9.794826523953686248e+00
0.000000000000000000e+00,-7.728542104619513711e-04,-9.794826524685912972e+00
0.000000000000000000e+00,-7.728542299289831987e-04,-9.794826525418143248e+00
0.000000000000000000e+00,-7.728542493960148096e-04,-9.794826526150371748e+00
0.000000000000000000e+00,-7.728542688630459867e-04,-9.794826526882600248e+00
0.000000000000000000e+00,-7.728542883300771639e-04,-9.794826527614826972e+00
0.000000000000000000e+00,-7.728543077971081242e-04,-9.794826528347057248e+00
0.000000000000000000e+00,-7.728543272641389761e-04,-9.794826529079285748e+00
0.000000000000000000e+00,-7.728543467311695028e-04,-9.794826529811512472e+00
0.000000000000000000e+00,-7.728543661981999210e-04,-9.794826530543739196e+00
0.000000000000000000e+00,-7.728543856652301224e-04,-9.794826531275971249e+00
0.000000000000000000e+00,-7.728544051322601069e-04,-9.794826532008197972e+00
0.000000000000000000e+00,-7.728544245992898746e-04,-9.794826532740426472e+00
0.000000000000000000e+00,-7.728544440663195339e-04,-9.794826533472654972e+00
0.000000000000000000e+00,-7.728544635333489763e-04,-9.794826534204885249e+00
0.000000000000000000e+00,-7.728544830003783103e-04,-9.794826534937111973e+00
0.000000000000000000e+00,-7.728545024674072107e-04,-9.794826535669342249e+00
0.000000000000000000e+00,-7.728545219344362194e-04,-9.794826536401567196e+00
0.000000000000000000e+00,-7.728545414014647945e-04,-9.794826537133797473e+00
0.000000000000000000e+00,-7.728545608684930443e-04,-9.794826537866025973e+00
0.000000000000000000e+00,-7.728545803355214025e-04,-9.794826538598252696e+00
0.000000000000000000e+00,-7.728545998025493271e-04,-9.794826539330482973e+00
0.000000000000000000e+00,-7.728546192695774685e-04,-9.794826540062713249e+00
0.000000000000000000e+00,-7.728546387366051762e-04,-9.794826540794939973e+00
0.000000000000000000e+00,-7.728546582036324502e-04,-9.794826541527166697e+00
0.000000000000000000e+00,-7.728546776706598327e-04,-9.794826542259398749e+00
0.000000000000000000e+00,-7.728546971376868899e-04,-9.794826542991627250e+00
0.000000000000000000e+00,-7.728547166047137302e-04,-9.794826543723855750e+00
0.000000000000000000e+00,-7.728547360717404622e-04,-9.794826544456080697e+00
0.000000000000000000e+00,-7.728547555387670857e-04,-9.794826545188312750e+00
0.000000000000000000e+00,-7.728547750057931671e-04,-9.794826545920541250e+00
0.000000000000000000e+00,-7.728547944728192485e-04,-9.794826546652766197e+00
0.000000000000000000e+00,-7.728548139398452215e-04,-9.794826547384996474e+00
0.000000000000000000e+00,-7.728548334068710860e-04,-9.794826548117226750e+00
0.000000000000000000e+00,-7.728548528738965169e-04,-9.794826548849455250e+00
0.000000000000000000e+00,-7.728548723409218394e-04,-9.794826549581681974e+00
0.000000000000000000e+00,-7.728548918079469450e-04,-9.794826550313912250e+00
0.000000000000000000e+00,-7.728549112749720507e-04,-9.794826551046142527e+00
0.000000000000000000e+00,-7.728549307419966142e-04,-9.794826551778371027e+00
0.000000000000000000e+00,-7.728549502090215030e-04,-9.794826552510597750e+00
0.000000000000000000e+00,-7.728549696760456328e-04,-9.794826553242826250e+00
0.000000000000000000e+00,-7.728549891430698711e-04,-9.794826553975056527e+00
0.000000000000000000e+00,-7.728550086100940009e-04,-9.794826554707281474e+00
0.000000000000000000e+00,-7.728550280771175887e-04,-9.794826555439511750e+00
0.000000000000000000e+00,-7.728550475441412848e-04,-9.794826556171742027e+00
0.000000000000000000e+00,-7.728550670111646557e-04,-9.794826556903970527e+00
0.000000000000000000e+00,-7.728550864781877014e-04,-9.794826557636197251e+00
0.000000000000000000e+00,-7.728551059452106386e-04,-9.794826558368427527e+00
0.000000000000000000e+00,-7.728551254122337927e-04,-9.794826559100657803e+00
0.000000000000000000e+00,-7.728551448792561878e-04,-9.794826559832886304e+00
0.000000000000000000e+00,-7.728551643462786913e-04,-9.794826560565113027e+00
0.000000000000000000e+00,-7.728551838133007612e-04,-9.794826561297341527e+00
0.000000000000000000e+00,-7.728552032803227227e-04,-9.794826562029573580e+00
0.000000000000000000e+00,-7.728552227473449009e-04,-9.794826562761802080e+00
0.000000000000000000e+00,-7.728552422143664287e-04,-9.794826563494028804e+00
0.000000000000000000e+00,-7.728552616813879565e-04,-9.794826564226257304e+00
0.000000000000000000e+00,-7.728552811484092674e-04,-9.794826564958489357e+00
0.000000000000000000e+00,-7.728553006154302530e-04,-9.794826565690717857e+00
0.000000000000000000e+00,-7.728553200824512387e-04,-9.794826566422944580e+00
0.000000000000000000e+00,-7.728553395494717907e-04,-9.794826567155173080e+00
0.000000000000000000e+00,-7.728553590164921258e-04,-9.794826567887405133e+00
0.000000000000000000e+00,-7.728553784835125694e-04,-9.794826568619633633e+00
0.000000000000000000e+00,-7.728553979505325792e-04,-9.794826569351860357e+00
0.000000000000000000e+00,-7.728554174175525891e-04,-9.794826570084088857e+00
0.000000000000000000e+00,-7.728554368845722737e-04,-9.794826570816320910e+00
0.000000000000000000e+00,-7.728554563515918499e-04,-9.794826571548549410e+00
0.000000000000000000e+00,-7.728554758186111009e-04,-9.794826572280777910e+00
0.000000000000000000e+00,-7.728554952856302434e-04,-9.794826573013008186e+00
0.000000000000000000e+00,-7.728555147526491691e-04,-9.794826573745236686e+00
0.000000000000000000e+00,-7.728555342196678779e-04,-9.794826574477465186e+00
0.000000000000000000e+00,-7.728555536866863699e-04,-9.794826575209693686e+00
0.000000000000000000e+00,-7.728555731537047535e-04,-9.794826575941923963e+00
0.000000000000000000e+00,-7.728555926207228118e-04,-9.794826576674152463e+00
0.000000000000000000e+00,-7.728556120877408701e-04,-9.794826577406380963e+00
0.000000000000000000e+00,-7.728556315547587116e-04,-9.794826578138609463e+00
0.000000000000000000e+00,-7.728556510217762278e-04,-9.794826578870839739e+00
0.000000000000000000e+00,-7.728556704887936356e-04,-9.794826579603070016e+00
0.000000000000000000e+00,-7.728556899558107181e-04,-9.794826580335298516e+00
0.000000000000000000e+00,-7.728557094228278006e-04,-9.794826581067525240e+00
0.000000000000000000e+00,-7.728557288898445579e-04,-9.794826581799755516e+00
0.000000000000000000e+00,-7.728557483568612068e-04,-9.794826582531985792e+00
0.000000000000000000e+00,-7.728557678238775304e-04,-9.794826583264214293e+00
0.000000000000000000e+00,-7.728557872908936371e-04,-9.794826583996442793e+00
0.000000000000000000e+00,-7.728558067579096354e-04,-9.794826584728673069e+00
0.000000000000000000e+00,-7.728558262249255253e-04,-9.794826585460901569e+00
0.000000000000000000e+00,-7.728558456919410900e-04,-9.794826586193131845e+00
0.000000000000000000e+00,-7.728558651589565462e-04,-9.794826586925358569e+00
0.000000000000000000e+00,-7.728558846259717856e-04,-9.794826587657588846e+00
0.000000000000000000e+00,-7.728559040929869166e-04,-9.794826588389819122e+00
0.000000000000000000e+00,-7.728559235600017223e-04,-9.794826589122047622e+00
0.000000000000000000e+00,-7.728559430270164196e-04,-9.794826589854276122e+00
0.000000000000000000e+00,-7.728559624940309000e-04,-9.794826590586506398e+00
0.000000000000000000e+00,-7.728559819610450552e-04,-9.794826591318734899e+00
0.000000000000000000e+00,-7.728560014280592104e-04,-9.794826592050963399e+00
0.000000000000000000e+00,-7.728560208950731487e-04,-9.794826592783193675e+00
0.000000000000000000e+00,-7.728560403620868702e-04,-9.794826593515423951e+00
0.000000000000000000e+00,-7.728560598291003749e-04,-9.794826594247652451e+00
0.000000000000000000e+00,-7.728560792961135543e-04,-9.794826594979880952e+00
0.000000000000000000e+00,-7.728560987631267337e-04,-9.794826595712111228e+00
0.000000000000000000e+00,-7.728561182301395879e-04,-9.794826596444339728e+00
0.000000000000000000e+00,-7.728561376971524420e-04,-9.794826597176568228e+00
0.000000000000000000e+00,-7.728561571641649709e-04,-9.794826597908798504e+00
0.000000000000000000e+00,-7.728561766311771745e-04,-9.794826598641027005e+00
0.000000000000000000e+00,-7.728561960981892697e-04,-9.794826599373259057e+00
0.000000000000000000e+00,-7.728562155652012565e-04,-9.794826600105487557e+00
0.000000000000000000e+00,-7.728562350322129180e-04,-9.794826600837717834e+00
0.000000000000000000e+00,-7.728562544992244711e-04,-9.794826601569949887e+00
0.000000000000000000e+00,-7.728562739662359158e-04,-9.794826602302176610e+00
0.000000000000000000e+00,-7.728562934332470352e-04,-9.794826603034405110e+00
0.000000000000000000e+00,-7.728563129002580462e-04,-9.794826603766635387e+00
0.000000000000000000e+00,-7.728563323672686235e-04,-9.794826604498865663e+00
0.000000000000000000e+00,-7.728563518342794177e-04,-9.794826605231092387e+00
0.000000000000000000e+00,-7.728563713012897782e-04,-9.794826605963322663e+00
0.000000000000000000e+00,-7.728563907682999218e-04,-9.794826606695552940e+00
0.000000000000000000e+00,-7.728564102353098486e-04,-9.794826607427783216e+00
0.000000000000000000e+00,-7.728564297023197754e-04,-9.794826608160011716e+00
0.000000000000000000e+00,-7.728564491693292685e-04,-9.794826608892240216e+00
0.000000000000000000e+00,-7.728564686363388701e-04,-9.794826609624474045e+00
0.000000000000000000e+00,-7.728564881033480379e-04,-9.794826610356702545e+00
0.000000000000000000e+00,-7.728565075703568805e-04,-9.794826611088932822e+00
0.000000000000000000e+00,-7.728565270373657231e-04,-9.794826611821159545e+00
0.000000000000000000e+00,-7.728565465043743489e-04,-9.794826612553391598e+00
0.000000000000000000e+00,-7.728565659713828662e-04,-9.794826613285620098e+00
0.000000000000000000e+00,-7.728565854383910583e-04,-9.794826614017848598e+00
0.000000000000000000e+00,-7.728566049053991419e-04,-9.794826614750077098e+00
0.000000000000000000e+00,-7.728566243724070087e-04,-9.794826615482307375e+00
0.000000000000000000e+00,-7.728566438394146587e-04,-9.794826616214537651e+00
0.000000000000000000e+00,-7.728566633064222003e-04,-9.794826616946766151e+00
0.000000000000000000e+00,-7.728566827734294166e-04,-9.794826617678998204e+00
0.000000000000000000e+00,-7.728567022404364160e-04,-9.794826618411228480e+00
0.000000000000000000e+00,-7.728567217074433070e-04,-9.794826619143456981e+00
0.000000000000000000e+00,-7.728567411744500897e-04,-9.794826619875687257e+00
0.000000000000000000e+00,-7.728567606414565470e-04,-9.794826620607919310e+00
0.000000000000000000e+00,-7.728567801084627875e-04,-9.794826621340146033e+00
0.000000000000000000e+00,-7.728567995754689196e-04,-9.794826622072376310e+00
0.000000000000000000e+00,-7.728568190424749433e-04,-9.794826622804604810e+00
0.000000000000000000e+00,-7.728568385094806417e-04,-9.794826623536836863e+00
0.000000000000000000e+00,-7.728568579764861233e-04,-9.794826624269067139e+00
0.000000000000000000e+00,-7.728568774434914964e-04,-9.794826625001295639e+00
0.000000000000000000e+00,-7.728568969104966527e-04,-9.794826625733525916e+00
0.000000000000000000e+00,-7.728569163775015922e-04,-9.794826626465756192e+00
0.000000000000000000e+00,-7.728569358445063148e-04,-9.794826627197986468e+00
0.000000000000000000e+00,-7.728569553115108206e-04,-9.794826627930213192e+00
0.000000000000000000e+00,-7.728569747785153264e-04,-9.794826628662443468e+00
0.000000000000000000e+00,-7.728569942455192901e-04,-9.794826629394673745e+00
0.000000000000000000e+00,-7.728570137125233622e-04,-9.794826630126905798e+00
0.000000000000000000e+00,-7.728570331795272174e-04,-9.794826630859134298e+00
0.000000000000000000e+00,-7.728570526465307474e-04,-9.794826631591362798e+00
0.000000000000000000e+00,-7.728570721135341690e-04,-9.794826632323594851e+00
0.000000000000000000e+00,-7.728570915805372653e-04,-9.794826633055823351e+00
0.000000000000000000e+00,-7.728571110475402533e-04,-9.794826633788053627e+00
0.000000000000000000e+00,-7.728571305145432412e-04,-9.794826634520282127e+00
0.000000000000000000e+00,-7.728571499815456870e-04,-9.794826635252514180e+00
0.000000000000000000e+00,-7.728571694485481328e-04,-9.794826635984744456e+00
0.000000000000000000e+00,-7.728571889155503617e-04,-9.794826636716974733e+00
0.000000000000000000e+00,-7.728572083825524823e-04,-9.794826637449203233e+00
0.000000000000000000e+00,-7.728572278495542775e-04,-9.794826638181433509e+00
0.000000000000000000e+00,-7.728572473165559644e-04,-9.794826638913663786e+00
0.000000000000000000e+00,-7.728572667835573260e-04,-9.794826639645895838e+00
0.000000000000000000e+00,-7.728572862505585792e-04,-9.794826640378126115e+00
0.000000000000000000e+00,-7.728573057175596155e-04,-9.794826641110354615e+00
0.000000000000000000e+00,-7.728573251845605434e-04,-9.794826641842583115e+00
0.000000000000000000e+00,-7.728573446515612545e-04,-9.794826642574813391e+00
0.000000000000000000e+00,-7.728573641185617488e-04,-9.794826643307045444e+00
0.000000000000000000e+00,-7.728573835855621346e-04,-9.794826644039275720e+00
0.000000000000000000e+00,-7.728574030525619783e-04,-9.794826644771504220e+00
0.000000000000000000e+00,-7.728574225195620389e-04,-9.794826645503734497e+00
0.000000000000000000e+00,-7.728574419865616657e-04,-9.794826646235964773e+00
0.000000000000000000e+00,-7.728574614535611842e-04,-9.794826646968195050e+00
0.000000000000000000e+00,-7.728574809205604858e-04,-9.794826647700421773e+00
0.000000000000000000e+00,-7.728575003875597874e-04,-9.794826648432653826e+00
0.000000000000000000e+00,-7.728575198545585469e-04,-9.794826649164885879e+00
0.000000000000000000e+00,-7.728575393215571980e-04,-9.794826649897116155e+00
0.000000000000000000e+00,-7.728575587885557407e-04,-9.794826650629346432e+00
0.000000000000000000e+00,-7.728575782555540665e-04,-9.794826651361573155e+00
0.000000000000000000e+00,-7.728575977225522840e-04,-9.794826652093806985e+00
0.000000000000000000e+00,-7.728576171895501761e-04,-9.794826652826037261e+00
0.000000000000000000e+00,-7.728576366565480683e-04,-9.794826653558267537e+00
0.000000000000000000e+00,-7.728576561235455267e-04,-9.794826654290499590e+00
0.000000000000000000e+00,-7.728576755905427684e-04,-9.794826655022726314e+00
0.000000000000000000e+00,-7.728576950575400100e-04,-9.794826655754958367e+00
0.000000000000000000e+00,-7.728577145245369264e-04,-9.794826656487186867e+00
0.000000000000000000e+00,-7.728577339915338427e-04,-9.794826657219418919e+00
0.000000000000000000e+00,-7.728577534585304339e-04,-9.794826657951649196e+00
0.000000000000000000e+00,-7.728577729255268081e-04,-9.794826658683875920e+00
0.000000000000000000e+00,-7.728577923925229656e-04,-9.794826659416107972e+00
0.000000000000000000e+00,-7.728578118595191230e-04,-9.794826660148340025e+00
0.000000000000000000e+00,-7.728578313265147383e-04,-9.794826660880570302e+00
0.000000000000000000e+00,-7.728578507935105705e-04,-9.794826661612800578e+00
0.000000000000000000e+00,-7.728578702605058606e-04,-9.794826662345029078e+00
0.000000000000000000e+00,-7.728578897275011506e-04,-9.794826663077262907e+00
0.000000000000000000e+00,-7.728579091944963323e-04,-9.794826663809491407e+00
0.000000000000000000e+00,-7.728579286614910802e-04,-9.794826664541721684e+00
0.000000000000000000e+00,-7.728579481284855029e-04,-9.794826665273951960e+00
0.000000000000000000e+00,-7.728579675954801425e-04,-9.794826666006185789e+00
0.000000000000000000e+00,-7.728579870624743484e-04,-9.794826666738414289e+00
0.000000000000000000e+00,-7.728580065294685542e-04,-9.794826667470642789e+00
0.000000000000000000e+00,-7.728580259964623264e-04,-9.794826668202873066e+00
0.000000000000000000e+00,-7.728580454634560986e-04,-9.794826668935106895e+00
0.000000000000000000e+00,-7.728580649304495455e-04,-9.794826669667337171e+00
0.000000000000000000e+00,-7.728580843974427756e-04,-9.794826670399563895e+00
0.000000000000000000e+00,-7.728581038644358973e-04,-9.794826671131795948e+00
0.000000000000000000e+00,-7.728581233314288021e-04,-9.794826671864026224e+00
0.000000000000000000e+00,-7.728581427984213817e-04,-9.794826672596258277e+00
0.000000000000000000e+00,-7.728581622654139612e-04,-9.794826673328486777e+00
0.000000000000000000e+00,-7.728581817324064324e-04,-9.794826674060718830e+00
0.000000000000000000e+00,-7.728582011993985782e-04,-9.794826674792949106e+00
0.000000000000000000e+00,-7.728582206663905073e-04,-9.794826675525179382e+00
0.000000000000000000e+00,-7.728582401333821111e-04,-9.794826676257409659e+00
0.000000000000000000e+00,-7.728582596003737148e-04,-9.794826676989639935e+00
0.000000000000000000e+00,-7.728582790673651018e-04,-9.794826677721870212e+00
0.000000000000000000e+00,-7.728582985343561635e-04,-9.794826678454102264e+00
0.000000000000000000e+00,-7.728583180013471167e-04,-9.794826679186332541e+00
0.000000000000000000e+00,-7.728583374683378531e-04,-9.794826679918564594e+00
0.000000000000000000e+00,-7.728583569353284811e-04,-9.794826680650794870e+00
0.000000000000000000e+00,-7.728583764023187839e-04,-9.794826681383023370e+00
0.000000000000000000e+00,-7.728583958693088698e-04,-9.794826682115255423e+00
0.000000000000000000e+00,-7.728584153362989557e-04,-9.794826682847487476e+00
0.000000000000000000e+00,-7.728584348032889332e-04,-9.794826683579717752e+00
0.000000000000000000e+00,-7.728584542702784770e-04,-9.794826684311948028e+00
0.000000000000000000e+00,-7.728584737372679123e-04,-9.794826685044176529e+00
0.000000000000000000e+00,-7.728584932042569140e-04,-9.794826685776408581e+00
0.000000000000000000e+00,-7.728585126712461326e-04,-9.794826686508640634e+00
0.000000000000000000e+00,-7.728585321382349174e-04,-9.794826687240870911e+00
0.000000000000000000e+00,-7.728585516052234854e-04,-9.794826687973102963e+00
0.000000000000000000e+00,-7.728585710722120534e-04,-9.794826688705333240e+00
0.000000000000000000e+00,-7.728585905392001878e-04,-9.794826689437561740e+00
0.000000000000000000e+00,-7.728586100061881053e-04,-9.794826690169792016e+00
0.000000000000000000e+00,-7.728586294731761312e-04,-9.794826690902025845e+00
0.000000000000000000e+00,-7.728586489401637234e-04,-9.794826691634256122e+00
0.000000000000000000e+00,-7.728586684071512072e-04,-9.794826692366486398e+00
0.000000000000000000e+00,-7.728586878741383658e-04,-9.794826693098714898e+00
0.000000000000000000e+00,-7.728587073411255243e-04,-9.794826693830948727e+00
0.000000000000000000e+00,-7.728587268081123576e-04,-9.794826694563179004e+00
0.000000000000000000e+00,-7.728587462750991909e-04,-9.794826695295409280e+00
0.000000000000000000e+00,-7.728587657420855905e-04,-9.794826696027641333e+00
0.000000000000000000e+00,-7.728587852090718817e-04,-9.794826696759871609e+00
0.000000000000000000e+00,-7.728588046760579561e-04,-9.794826697492101886e+00
0.000000000000000000e+00,-7.728588241430439220e-04,-9.794826698224332162e+00
0.000000000000000000e+00,-7.728588436100295627e-04,-9.794826698956564215e+00
0.000000000000000000e+00,-7.728588630770149865e-04,-9.794826699688796268e+00
0.000000000000000000e+00,-7.728588825440003019e-04,-9.794826700421024768e+00
0.000000000000000000e+00,-7.728589020109855089e-04,-9.794826701153256820e+00
0.000000000000000000e+00,-7.728589214779704990e-04,-9.794826701885487097e+00
0.000000000000000000e+00,-7.728589409449553808e-04,-9.794826702617719150e+00
0.000000000000000000e+00,-7.728589604119398288e-04,-9.794826703349951202e+00
0.000000000000000000e+00,-7.728589798789240600e-04,-9.794826704082181479e+00
0.000000000000000000e+00,-7.728589993459082912e-04,-9.794826704814411755e+00
0.000000000000000000e+00,-7.728590188128923056e-04,-9.794826705546643808e+00
0.000000000000000000e+00,-7.728590382798761031e-04,-9.794826706278874084e+00
0.000000000000000000e+00,-7.728590577468596838e-04,-9.794826707011104361e+00
0.000000000000000000e+00,-7.728590772138429392e-04,-9.794826707743338190e+00
0.000000000000000000e+00,-7.728590966808261947e-04,-9.794826708475568466e+00
0.000000000000000000e+00,-7.728591161478091248e-04,-9.794826709207796966e+00
0.000000000000000000e+00,-7.728591356147920550e-04,-9.794826709940030796e+00
0.000000000000000000e+00,-7.728591550817746599e-04,-9.794826710672261072e+00
0.000000000000000000e+00,-7.728591745487570479e-04,-9.794826711404491348e+00
0.000000000000000000e+00,-7.728591940157393276e-04,-9.794826712136725178e+00
0.000000000000000000e+00,-7.728592134827213904e-04,-9.794826712868955454e+00
0.000000000000000000e+00,-7.728592329497030195e-04,-9.794826713601183954e+00
0.000000000000000000e+00,-7.728592524166848655e-04,-9.794826714333416007e+00
0.000000000000000000e+00,-7.728592718836661693e-04,-9.794826715065648060e+00
0.000000000000000000e+00,-7.728592913506474732e-04,-9.794826715797878336e+00
0.000000000000000000e+00,-7.728593108176284518e-04,-9.794826716530112165e+00
0.000000000000000000e+00,-7.728593302846093220e-04,-9.794826717262342441e+00
0.000000000000000000e+00,-7.728593497515899753e-04,-9.794826717994572718e+00
0.000000000000000000e+00,-7.728593692185705202e-04,-9.794826718726802994e+00
0.000000000000000000e+00,-7.728593886855507399e-04,-9.794826719459035047e+00
0.000000000000000000e+00,-7.728594081525308511e-04,-9.794826720191268876e+00
0.000000000000000000e+00,-7.728594276195106371e-04,-9.794826720923497376e+00
0.000000000000000000e+00,-7.728594470864903147e-04,-9.794826721655727653e+00
0.000000000000000000e+00,-7.728594665534699922e-04,-9.794826722387961482e+00
0.000000000000000000e+00,-7.728594860204492361e-04,-9.794826723120191758e+00
0.000000000000000000e+00,-7.728595054874282631e-04,-9.794826723852422035e+00
0.000000000000000000e+00,-7.728595249544071817e-04,-9.794826724584655864e+00
0.000000000000000000e+00,-7.728595444213858835e-04,-9.794826725316886140e+00
0.000000000000000000e+00,-7.728595638883644769e-04,-9.794826726049118193e+00
0.000000000000000000e+00,-7.728595833553428534e-04,-9.794826726781348469e+00
0.000000000000000000e+00,-7.728596028223210131e-04,-9.794826727513580522e+00
0.000000000000000000e+00,-7.728596222892989559e-04,-9.794826728245812575e+00
0.000000000000000000e+00,-7.728596417562766819e-04,-9.794826728978042851e+00
0.000000000000000000e+00,-7.728596612232542995e-04,-9.794826729710274904e+00
0.000000000000000000e+00,-7.728596806902317002e-04,-9.794826730442506957e+00
0.000000000000000000e+00,-7.728597001572086672e-04,-9.794826731174735457e+00
0.000000000000000000e+00,-7.728597196241858511e-04,-9.794826731906969286e+00
0.000000000000000000e+00,-7.728597390911624929e-04,-9.794826732639197786e+00
0.000000000000000000e+00,-7.728597585581391347e-04,-9.794826733371433392e+00
0.000000000000000000e+00,-7.728597780251155597e-04,-9.794826734103663668e+00
0.000000000000000000e+00,-7.728597974920917678e-04,-9.794826734835893944e+00
0.000000000000000000e+00,-7.728598169590676506e-04,-9.794826735568125997e+00
0.000000000000000000e+00,-7.728598364260434251e-04,-9.794826736300358050e+00
0.000000000000000000e+00,-7.728598558930191995e-04,-9.794826737032590103e+00
0.000000000000000000e+00,-7.728598753599945402e-04,-9.794826737764820379e+00
0.000000000000000000e+00,-7.728598948269696641e-04,-9.794826738497052432e+00
0.000000000000000000e+00,-7.728599142939447881e-04,-9.794826739229284485e+00
0.000000000000000000e+00,-7.728599337609195867e-04,-9.794826739961514761e+00
0.000000000000000000e+00,-7.728599532278942769e-04,-9.794826740693746814e+00
0.000000000000000000e+00,-7.728599726948687503e-04,-9.794826741425978867e+00
0.000000000000000000e+00,-7.728599921618430069e-04,-9.794826742158209143e+00
0.000000000000000000e+00,-7.728600116288170466e-04,-9.794826742890442972e+00
0.000000000000000000e+00,-7.728600310957908694e-04,-9.794826743622673249e+00
0.000000000000000000e+00,-7.728600505627644755e-04,-9.794826744354907078e+00
0.000000000000000000e+00,-7.728600700297380815e-04,-9.794826745087135578e+00
0.000000000000000000e+00,-7.728600894967114707e-04,-9.794826745819369407e+00
0.000000000000000000e+00,-7.728601089636843178e-04,-9.794826746551597907e+00
0.000000000000000000e+00,-7.728601284306572733e-04,-9.794826747283831736e+00
0.000000000000000000e+00,-7.728601478976301203e-04,-9.794826748016063789e+00
0.000000000000000000e+00,-7.728601673646024253e-04,-9.794826748748294065e+00
0.000000000000000000e+00,-7.728601868315748387e-04,-9.794826749480527894e+00
0.000000000000000000e+00,-7.728602062985469269e-04,-9.794826750212758171e+00
0.000000000000000000e+00,-7.728602257655189066e-04,-9.794826750944990224e+00
0.000000000000000000e+00,-7.728602452324905610e-04,-9.794826751677222276e+00
0.000000000000000000e+00,-7.728602646994622155e-04,-9.794826752409456105e+00
0.000000000000000000e+00,-7.728602841664335447e-04,-9.794826753141686382e+00
0.000000000000000000e+00,-7.728603036334046571e-04,-9.794826753873914882e+00
0.000000000000000000e+00,-7.728603231003756610e-04,-9.794826754606148711e+00
0.000000000000000000e+00,-7.728603425673463397e-04,-9.794826755338380764e+00
0.000000000000000000e+00,-7.728603620343168015e-04,-9.794826756070612817e+00
0.000000000000000000e+00,-7.728603815012871549e-04,-9.794826756802844869e+00
0.000000000000000000e+00,-7.728604009682573999e-04,-9.794826757535076922e+00
0.000000000000000000e+00,-7.728604204352274281e-04,-9.794826758267310751e+00
0.000000000000000000e+00,-7.728604399021971310e-04,-9.794826758999542804e+00
0.000000000000000000e+00,-7.728604593691668339e-04,-9.794826759731771304e+00
0.000000000000000000e+00,-7.728604788361362115e-04,-9.794826760464003357e+00
0.000000000000000000e+00,-7.728604983031053723e-04,-9.794826761196235410e+00
0.000000000000000000e+00,-7.728605177700745331e-04,-9.794826761928469239e+00
0.000000000000000000e+00,-7.728605372370432602e-04,-9.794826762660699515e+00
0.000000000000000000e+00,-7.728605567040118789e-04,-9.794826763392933344e+00
0.000000000000000000e+00,-7.728605761709803892e-04,-9.794826764125165397e+00
0.000000000000000000e+00,-7.728605956379485742e-04,-9.794826764857393897e+00
0.000000000000000000e+00,-7.728606151049165424e-04,-9.794826765589625950e+00
0.000000000000000000e+00,-7.728606345718844021e-04,-9.794826766321858003e+00
0.000000000000000000e+00,-7.728606540388520451e-04,-9.794826767054091832e+00
0.000000000000000000e+00,-7.728606735058195796e-04,-9.794826767786323884e+00
0.000000000000000000e+00,-7.728606929727867888e-04,-9.794826768518555937e+00
0.000000000000000000e+00,-7.728607124397538896e-04,-9.794826769250786214e+00
0.000000000000000000e+00,-7.728607319067205567e-04,-9.794826769983020043e+00
0.000000000000000000e+00,-7.728607513736873323e-04,-9.794826770715250319e+00
0.000000000000000000e+00,-7.728607708406538910e-04,-9.794826771447484148e+00
0.000000000000000000e+00,-7.728607903076201244e-04,-9.794826772179716201e+00
0.000000000000000000e+00,-7.728608097745861411e-04,-9.794826772911950030e+00
0.000000000000000000e+00,-7.728608292415521577e-04,-9.794826773644180307e+00
0.000000000000000000e+00,-7.728608487085177406e-04,-9.794826774376412359e+00
0.000000000000000000e+00,-7.728608681754833235e-04,-9.794826775108644412e+00
0.000000000000000000e+00,-7.728608876424486896e-04,-9.794826775840876465e+00
0.000000000000000000e+00,-7.728609071094138389e-04,-9.794826776573106741e+00
0.000000000000000000e+00,-7.728609265763788797e-04,-9.794826777305340570e+00
0.000000000000000000e+00,-7.728609460433434868e-04,-9.794826778037572623e+00
0.000000000000000000e+00,-7.728609655103082024e-04,-9.794826778769806452e+00
0.000000000000000000e+00,-7.728609849772724843e-04,-9.794826779502036729e+00
0.000000000000000000e+00,-7.728610044442365493e-04,-9.794826780234268782e+00
0.000000000000000000e+00,-7.728610239112003975e-04,-9.794826780966502611e+00
0.000000000000000000e+00,-7.728610433781642457e-04,-9.794826781698734663e+00
0.000000000000000000e+00,-7.728610628451278771e-04,-9.794826782430966716e+00
0.000000000000000000e+00,-7.728610823120911832e-04,-9.794826783163198769e+00
0.000000000000000000e+00,-7.728611017790542725e-04,-9.794826783895432598e+00
0.000000000000000000e+00,-7.728611212460173617e-04,-9.794826784627662875e+00
0.000000000000000000e+00,-7.728611407129801257e-04,-9.794826785359896704e+00
0.000000000000000000e+00,-7.728611601799427813e-04,-9.794826786092126980e+00
0.000000000000000000e+00,-7.728611796469051116e-04,-9.794826786824360809e+00
0.000000000000000000e+00,-7.728611991138673335e-04,-9.794826787556591086e+00
0.000000000000000000e+00,-7.728612185808293386e-04,-9.794826788288824915e+00
0.000000000000000000e+00,-7.728612380477912353e-04,-9.794826789021056967e+00
0.000000000000000000e+00,-7.728612575147529151e-04,-9.794826789753290797e+00
0.000000000000000000e+00,-7.728612769817143780e-04,-9.794826790485521073e+00
0.000000000000000000e+00,-7.728612964486756241e-04,-9.794826791217754902e+00
0.000000000000000000e+00,-7.728613159156367618e-04,-9.794826791949988731e+00
0.000000000000000000e+00,-7.728613353825973574e-04,-9.794826792682219008e+00
0.000000000000000000e+00,-7.728613548495581699e-04,-9.794826793414451060e+00
0.000000000000000000e+00,-7.728613743165186570e-04,-9.794826794146683113e+00
0.000000000000000000e+00,-7.728613937834790358e-04,-9.794826794878916942e+00
0.000000000000000000e+00,-7.728614132504388725e-04,-9.794826795611148995e+00
0.000000000000000000e+00,-7.728614327173987091e-04,-9.794826796343381048e+00
0.000000000000000000e+00,-7.728614521843586542e-04,-9.794826797075611324e+00
0.000000000000000000e+00,-7.728614716513179488e-04,-9.794826797807845153e+00
0.000000000000000000e+00,-7.728614911182772433e-04,-9.794826798540077206e+00
0.000000000000000000e+00,-7.728615105852364294e-04,-9.794826799272309259e+00
0.000000000000000000e+00,-7.728615300521952903e-04,-9.794826800004543088e+00
0.000000000000000000e+00,-7.728615495191540428e-04,-9.794826800736776917e+00
0.000000000000000000e+00,-7.728615689861125784e-04,-9.794826801469008970e+00
0.000000000000000000e+00,-7.728615884530708972e-04,-9.794826802201239246e+00
0.000000000000000000e+00,-7.728616079200291075e-04,-9.794826802933474852e+00
0.000000000000000000e+00,-7.728616273869869926e-04,-9.794826803665706905e+00
0.000000000000000000e+00,-7.728616468539446609e-04,-9.794826804397937181e+00
0.000000000000000000e+00,-7.728616663209022207e-04,-9.794826805130171010e+00
0.000000000000000000e+00,-7.728616857878594553e-04,-9.794826805862403063e+00
0.000000000000000000e+00,-7.728617052548166898e-04,-9.794826806594636892e+00
0.000000000000000000e+00,-7.728617247217735992e-04,-9.794826807326868945e+00
0.000000000000000000e+00,-7.728617441887305085e-04,-9.794826808059100998e+00
0.000000000000000000e+00,-7.728617636556872009e-04,-9.794826808791336603e+00
0.000000000000000000e+00,-7.728617831226434597e-04,-9.794826809523565103e+00
0.000000000000000000e+00,-7.728618025895997185e-04,-9.794826810255798932e+00
0.000000000000000000e+00,-7.728618220565555436e-04,-9.794826810988030985e+00
0.000000000000000000e+00,-7.728618415235113687e-04,-9.794826811720264814e+00
0.000000000000000000e+00,-7.728618609904669770e-04,-9.794826812452496867e+00
0.000000000000000000e+00,-7.728618804574224769e-04,-9.794826813184728920e+00
0.000000000000000000e+00,-7.728618999243777599e-04,-9.794826813916962749e+00
0.000000000000000000e+00,-7.728619193913327176e-04,-9.794826814649196578e+00
0.000000000000000000e+00,-7.728619388582875669e-04,-9.794826815381428631e+00
0.000000000000000000e+00,-7.728619583252421994e-04,-9.794826816113660684e+00
0.000000000000000000e+00,-7.728619777921967235e-04,-9.794826816845890960e+00
0.000000000000000000e+00,-7.728619972591509223e-04,-9.794826817578126565e+00
0.000000000000000000e+00,-7.728620167261050127e-04,-9.794826818310358618e+00
0.000000000000000000e+00,-7.728620361930587778e-04,-9.794826819042590671e+00
0.000000000000000000e+00,-7.728620556600125429e-04,-9.794826819774826276e+00
0.000000000000000000e+00,-7.728620751269658744e-04,-9.794826820507056553e+00
0.000000000000000000e+00,-7.728620945939192058e-04,-9.794826821239290382e+00
0.000000000000000000e+00,-7.728621140608722120e-04,-9.794826821971524211e+00
0.000000000000000000e+00,-7.728621335278252182e-04,-9.794826822703754488e+00
0.000000000000000000e+00,-7.728621529947778991e-04,-9.794826823435990093e+00
0.000000000000000000e+00,-7.728621724617302548e-04,-9.794826824168222146e+00
0.000000000000000000e+00,-7.728621919286827189e-04,-9.794826824900452422e+00
0.000000000000000000e+00,-7.728622113956347493e-04,-9.794826825632689804e+00
0.000000000000000000e+00,-7.728622308625866712e-04,-9.794826826364921857e+00
0.000000000000000000e+00,-7.728622503295383764e-04,-9.794826827097153910e+00
0.000000000000000000e+00,-7.728622697964898647e-04,-9.794826827829387739e+00
0.000000000000000000e+00,-7.728622892634412446e-04,-9.794826828561618015e+00
0.000000000000000000e+00,-7.728623087303924076e-04,-9.794826829293851844e+00
0.000000000000000000e+00,-7.728623281973433538e-04,-9.794826830026085673e+00
0.000000000000000000e+00,-7.728623476642940832e-04,-9.794826830758315950e+00
0.000000000000000000e+00,-7.728623671312447041e-04,-9.794826831490551555e+00
0.000000000000000000e+00,-7.728623865981952166e-04,-9.794826832222785384e+00
0.000000000000000000e+00,-7.728624060651451870e-04,-9.794826832955015661e+00
0.000000000000000000e+00,-7.728624255320952659e-04,-9.794826833687249490e+00
0.000000000000000000e+00,-7.728624449990450195e-04,-9.794826834419485095e+00
0.000000000000000000e+00,-7.728624644659945562e-04,-9.794826835151717148e+00
0.000000000000000000e+00,-7.728624839329439845e-04,-9.794826835883949201e+00
0.000000000000000000e+00,-7.728625033998931960e-04,-9.794826836616184806e+00
0.000000000000000000e+00,-7.728625228668419738e-04,-9.794826837348415083e+00
0.000000000000000000e+00,-7.728625423337910768e-04,-9.794826838080647136e+00
0.000000000000000000e+00,-7.728625618007394209e-04,-9.794826838812880965e+00
0.000000000000000000e+00,-7.728625812676879819e-04,-9.794826839545114794e+00
0.000000000000000000e+00,-7.728626007346361092e-04,-9.794826840277348623e+00
0.000000000000000000e+00,-7.728626202015843449e-04,-9.794826841009580676e+00
0.000000000000000000e+00,-7.728626396685319300e-04,-9.794826841741814505e+00
0.000000000000000000e+00,-7.728626591354797321e-04,-9.794826842474048334e+00
0.000000000000000000e+00,-7.728626786024273172e-04,-9.794826843206282163e+00
0.000000000000000000e+00,-7.728626980693744687e-04,-9.794826843938512440e+00
0.000000000000000000e+00,-7.728627175363215118e-04,-9.794826844670746269e+00
0.000000000000000000e+00,-7.728627370032682296e-04,-9.794826845402980098e+00
0.000000000000000000e+00,-7.728627564702150558e-04,-9.794826846135212151e+00
0.000000000000000000e+00,-7.728627759371615568e-04,-9.794826846867445980e+00
0.000000000000000000e+00,-7.728627954041077325e-04,-9.794826847599679809e+00
0.000000000000000000e+00,-7.728628148710540166e-04,-9.794826848331913638e+00
0.000000000000000000e+00,-7.728628343379997587e-04,-9.794826849064145691e+00
0.000000000000000000e+00,-7.728628538049455007e-04,-9.794826849796379520e+00
0.000000000000000000e+00,-7.728628732718909175e-04,-9.794826850528613349e+00
0.000000000000000000e+00,-7.728628927388362258e-04,-9.794826851260843625e+00
0.000000000000000000e+00,-7.728629122057814257e-04,-9.794826851993079231e+00
0.000000000000000000e+00,-7.728629316727264088e-04,-9.794826852725313060e+00
0.000000000000000000e+00,-7.728629511396710667e-04,-9.794826853457545113e+00
0.000000000000000000e+00,-7.728629706066155076e-04,-9.794826854189778942e+00
0.000000000000000000e+00,-7.728629900735600571e-04,-9.794826854922012771e+00
0.000000000000000000e+00,-7.728630095405040644e-04,-9.794826855654246600e+00
0.000000000000000000e+00,-7.728630290074480717e-04,-9.794826856386480429e+00
0.000000000000000000e+00,-7.728630484743916453e-04,-9.794826857118712482e+00
0.000000000000000000e+00,-7.728630679413353273e-04,-9.794826857850946311e+00
0.000000000000000000e+00,-7.728630874082786841e-04,-9.794826858583176588e+00
0.000000000000000000e+00,-7.728631068752219325e-04,-9.794826859315412193e+00
0.000000000000000000e+00,-7.728631263421649640e-04,-9.794826860047646022e+00
0.000000000000000000e+00,-7.728631458091076703e-04,-9.794826860779879851e+00
0.000000000000000000e+00,-7.728631652760503765e-04,-9.794826861512111904e+00
0.000000000000000000e+00,-7.728631847429926491e-04,-9.794826862244347510e+00
0.000000000000000000e+00,-7.728632042099349217e-04,-9.794826862976581339e+00
0.000000000000000000e+00,-7.728632236768769774e-04,-9.794826863708813391e+00
0.000000000000000000e+00,-7.728632431438187079e-04,-9.794826864441045444e+00
0.000000000000000000e+00,-7.728632626107603300e-04,-9.794826865173281050e+00
0.000000000000000000e+00,-7.728632820777017352e-04,-9.794826865905514879e+00
0.000000000000000000e+00,-7.728633015446430320e-04,-9.794826866637746932e+00
0.000000000000000000e+00,-7.728633210115841120e-04,-9.794826867369978984e+00
0.000000000000000000e+00,-7.728633404785248667e-04,-9.794826868102214590e+00
0.000000000000000000e+00,-7.728633599454656214e-04,-9.794826868834448419e+00
0.000000000000000000e+00,-7.728633794124060508e-04,-9.794826869566680472e+00
0.000000000000000000e+00,-7.728633988793461550e-04,-9.794826870298916077e+00
0.000000000000000000e+00,-7.728634183462862592e-04,-9.794826871031148130e+00
0.000000000000000000e+00,-7.728634378132261465e-04,-9.794826871763381959e+00
0.000000000000000000e+00,-7.728634572801657086e-04,-9.794826872495615788e+00
0.000000000000000000e+00,-7.728634767471052706e-04,-9.794826873227851394e+00
0.000000000000000000e+00,-7.728634962140446159e-04,-9.794826873960083446e+00
0.000000000000000000e+00,-7.728635156809837443e-04,-9.794826874692317276e+00
0.000000000000000000e+00,-7.728635351479226558e-04,-9.794826875424549328e+00
0.000000000000000000e+00,-7.728635546148615674e-04,-9.794826876156783158e+00
0.000000000000000000e+00,-7.728635740817998284e-04,-9.794826876889016987e+00
0.000000000000000000e+00,-7.728635935487383063e-04,-9.794826877621250816e+00
0.000000000000000000e+00,-7.728636130156763505e-04,-9.794826878353484645e+00
0.000000000000000000e+00,-7.728636324826142863e-04,-9.794826879085718474e+00
0.000000000000000000e+00,-7.728636519495518968e-04,-9.794826879817952303e+00
0.000000000000000000e+00,-7.728636714164896157e-04,-9.794826880550186132e+00
0.000000000000000000e+00,-7.728636908834267925e-04,-9.794826881282419961e+00
0.000000000000000000e+00,-7.728637103503639694e-04,-9.794826882014653791e+00
0.000000000000000000e+00,-7.728637298173010378e-04,-9.794826882746887620e+00
0.000000000000000000e+00,-7.728637492842377809e-04,-9.794826883479121449e+00
0.000000000000000000e+00,-7.728637687511744157e-04,-9.794826884211357054e+00
0.000000000000000000e+00,-7.728637882181107251e-04,-9.794826884943590883e+00
0.000000000000000000e+00,-7.728638076850469262e-04,-9.794826885675821160e+00
0.000000000000000000e+00,-7.728638271519829104e-04,-9.794826886408054989e+00
0.000000000000000000e+00,-7.728638466189185693e-04,-9.794826887140290594e+00
0.000000000000000000e+00,-7.728638660858541199e-04,-9.794826887872524424e+00
0.000000000000000000e+00,-7.728638855527896704e-04,-9.794826888604758253e+00
0.000000000000000000e+00,-7.728639050197248957e-04,-9.794826889336990305e+00
0.000000000000000000e+00,-7.728639244866600125e-04,-9.794826890069225911e+00
0.000000000000000000e+00,-7.728639439535946957e-04,-9.794826890801459740e+00
0.000000000000000000e+00,-7.728639634205294873e-04,-9.794826891533693569e+00
0.000000000000000000e+00,-7.728639828874638452e-04,-9.794826892265929175e+00
0.000000000000000000e+00,-7.728640023543980947e-04,-9.794826892998163004e+00
0.000000000000000000e+00,-7.728640218213322357e-04,-9.794826893730396833e+00
0.000000000000000000e+00,-7.728640412882660515e-04,-9.794826894462630662e+00
0.000000000000000000e+00,-7.728640607551997589e-04,-9.794826895194864491e+00
0.000000000000000000e+00,-7.728640802221331410e-04,-9.794826895927100097e+00
0.000000000000000000e+00,-7.728640996890665232e-04,-9.794826896659330373e+00
0.000000000000000000e+00,-7.728641191559995800e-04,-9.794826897391564202e+00
0.000000000000000000e+00,-7.728641386229324201e-04,-9.794826898123798031e+00
0.000000000000000000e+00,-7.728641580898650432e-04,-9.794826898856033637e+00
0.000000000000000000e+00,-7.728641775567975580e-04,-9.794826899588267466e+00
0.000000000000000000e+00,-7.728641970237297475e-04,-9.794826900320503071e+00
0.000000000000000000e+00,-7.728642164906618286e-04,-9.794826901052736901e+00
0.000000000000000000e+00,-7.728642359575938012e-04,-9.794826901784970730e+00
0.000000000000000000e+00,-7.728642554245255571e-04,-9.794826902517204559e+00
0.000000000000000000e+00,-7.728642748914570960e-04,-9.794826903249438388e+00
0.000000000000000000e+00,-7.728642943583882013e-04,-9.794826903981673993e+00
0.000000000000000000e+00,-7.728643138253195235e-04,-9.794826904713907822e+00
0.000000000000000000e+00,-7.728643332922504119e-04,-9.794826905446139875e+00
0.000000000000000000e+00,-7.728643527591810836e-04,-9.794826906178373704e+00
0.000000000000000000e+00,-7.728643722261117552e-04,-9.794826906910609310e+00
0.000000000000000000e+00,-7.728643916930421015e-04,-9.794826907642843139e+00
0.000000000000000000e+00,-7.728644111599722311e-04,-9.794826908375078744e+00
0.000000000000000000e+00,-7.728644306269022522e-04,-9.794826909107310797e+00
0.000000000000000000e+00,-7.728644500938318396e-04,-9.794826909839544626e+00
0.000000000000000000e+00,-7.728644695607616438e-04,-9.794826910571778456e+00
0.000000000000000000e+00,-7.728644890276910144e-04,-9.794826911304012285e+00
0.000000000000000000e+00,-7.728645084946200597e-04,-9.794826912036246114e+00
0.000000000000000000e+00,-7.728645279615492135e-04,-9.794826912768483496e+00
0.000000000000000000e+00,-7.728645474284779335e-04,-9.794826913500717325e+00
0.000000000000000000e+00,-7.728645668954066536e-04,-9.794826914232951154e+00
0.000000000000000000e+00,-7.728645863623350484e-04,-9.794826914965183207e+00
0.000000000000000000e+00,-7.728646058292631179e-04,-9.794826915697418812e+00
0.000000000000000000e+00,-7.728646252961912958e-04,-9.794826916429652641e+00
0.000000000000000000e+00,-7.728646447631189317e-04,-9.794826917161886470e+00
0.000000000000000000e+00,-7.728646642300466760e-04,-9.794826917894123852e+00
0.000000000000000000e+00,-7.728646836969740950e-04,-9.794826918626357681e+00
0.000000000000000000e+00,-7.728647031639012972e-04,-9.794826919358591510e+00
0.000000000000000000e+00,-7.728647226308283909e-04,-9.794826920090825340e+00
0.000000000000000000e+00,-7.728647420977553762e-04,-9.794826920823057392e+00
0.000000000000000000e+00,-7.728647615646820363e-04,-9.794826921555292998e+00
0.000000000000000000e+00,-7.728647810316085880e-04,-9.794826922287526827e+00
0.000000000000000000e+00,-7.728648004985347059e-04,-9.794826923019760656e+00
0.000000000000000000e+00,-7.728648199654610407e-04,-9.794826923751996262e+00
0.000000000000000000e+00,-7.728648394323867250e-04,-9.794826924484231867e+00
0.000000000000000000e+00,-7.728648588993124093e-04,-9.794826925216465696e+00
0.000000000000000000e+00,-7.728648783662378768e-04,-9.794826925948699525e+00
0.000000000000000000e+00,-7.728648978331631274e-04,-9.794826926680935131e+00
0.000000000000000000e+00,-7.728649173000883780e-04,-9.794826927413167184e+00
0.000000000000000000e+00,-7.728649367670131949e-04,-9.794826928145402789e+00
0.000000000000000000e+00,-7.728649562339377950e-04,-9.794826928877636618e+00
0.000000000000000000e+00,-7.728649757008623951e-04,-9.794826929609872224e+00
0.000000000000000000e+00,-7.728649951677866699e-04,-9.794826930342106053e+00
0.000000000000000000e+00,-7.728650146347109447e-04,-9.794826931074341658e+00
0.000000000000000000e+00,-7.728650341016347859e-04,-9.794826931806575487e+00
0.000000000000000000e+00,-7.728650535685586270e-04,-9.794826932538811093e+00
0.000000000000000000e+00,-7.728650730354822513e-04,-9.794826933271044922e+00
0.000000000000000000e+00,-7.728650925024054420e-04,-9.794826934003280527e+00
0.000000000000000000e+00,-7.728651119693286326e-04,-9.794826934735516133e+00
0.000000000000000000e+00,-7.728651314362518232e-04,-9.794826935467746409e+00
0.000000000000000000e+00,-7.728651509031744717e-04,-9.794826936199982015e+00
0.000000000000000000e+00,-7.728651703700971203e-04,-9.794826936932215844e+00
0.000000000000000000e+00,-7.728651898370193351e-04,-9.794826937664451449e+00
0.000000000000000000e+00,-7.728652093039416584e-04,-9.794826938396687055e+00
0.000000000000000000e+00,-7.728652287708637648e-04,-9.794826939128920884e+00
0.000000000000000000e+00,-7.728652482377855459e-04,-9.794826939861156490e+00
0.000000000000000000e+00,-7.728652677047071103e-04,-9.794826940593392095e+00
0.000000000000000000e+00,-7.728652871716285662e-04,-9.794826941325625924e+00
0.000000000000000000e+00,-7.728653066385496968e-04,-9.794826942057861530e+00
0.000000000000000000e+00,-7.728653261054709359e-04,-9.794826942790095359e+00
0.000000000000000000e+00,-7.728653455723916328e-04,-9.794826943522330964e+00
0.000000000000000000e+00,-7.728653650393122214e-04,-9.794826944254566570e+00
0.000000000000000000e+00,-7.728653845062325931e-04,-9.794826944986800399e+00
0.000000000000000000e+00,-7.728654039731529648e-04,-9.794826945719032452e+00
0.000000000000000000e+00,-7.728654234400731196e-04,-9.794826946451268057e+00
0.000000000000000000e+00,-7.728654429069929492e-04,-9.794826947183503663e+00
0.000000000000000000e+00,-7.728654623739125620e-04,-9.794826947915737492e+00
0.000000000000000000e+00,-7.728654818408321747e-04,-9.794826948647971321e+00
0.000000000000000000e+00,-7.728655013077513538e-04,-9.794826949380208703e+00
0.000000000000000000e+00,-7.728655207746705329e-04,-9.794826950112442532e+00
0.000000000000000000e+00,-7.728655402415894951e-04,-9.794826950844676361e+00
0.000000000000000000e+00,-7.728655597085080237e-04,-9.794826951576913743e+00
0.000000000000000000e+00,-7.728655791754265522e-04,-9.794826952309147572e+00
0.000000000000000000e+00,-7.728655986423449724e-04,-9.794826953041383177e+00
0.000000000000000000e+00,-7.728656181092630672e-04,-9.794826953773615230e+00
0.000000000000000000e+00,-7.728656375761810537e-04,-9.794826954505852612e+00
0.000000000000000000e+00,-7.728656570430986065e-04,-9.794826955238086441e+00
0.000000000000000000e+00,-7.728656765100161592e-04,-9.794826955970320270e+00
0.000000000000000000e+00,-7.728656959769333867e-04,-9.794826956702554099e+00
0.000000000000000000e+00,-7.728657154438506142e-04,-9.794826957434791481e+00
0.000000000000000000e+00,-7.728657349107676249e-04,-9.794826958167025310e+00
0.000000000000000000e+00,-7.728657543776843103e-04,-9.794826958899260916e+00
0.000000000000000000e+00,-7.728657738446008873e-04,-9.794826959631496521e+00
0.000000000000000000e+00,-7.728657933115173559e-04,-9.794826960363732127e+00
0.000000000000000000e+00,-7.728658127784337160e-04,-9.794826961095965956e+00
0.000000000000000000e+00,-7.728658322453495341e-04,-9.794826961828201561e+00
0.000000000000000000e+00,-7.728658517122653521e-04,-9.794826962560435391e+00
0.000000000000000000e+00,-7.728658711791807365e-04,-9.794826963292670996e+00
0.000000000000000000e+00,-7.728658906460962293e-04,-9.794826964024906601e+00
