accel_x (m/s^2),accel_y (m/s^2),accel_z (m/s^2)
3.774473880638000867e-03,-4.283229418257728308e-03,-9.796846895499358610e+00
8.501445336803421793e-03,-3.978477347446370514e-03,-9.791223571461868502e+00
-2.231665901869015964e-03,4.567061055764649706e-03,-9.790769849864023655e+00
8.436624830916415740e-04,1.539648511232433788e-03,-9.800473520772076341e+00
3.364655184700374169e-03,-2.800235513849302395e-03,-9.796711246769694625e+00
1.350469597582943391e-03,8.095386376390476283e-04,-9.795731713056504475e+00
-4.469395727205860772e-03,-5.152978916406137505e-03,-9.798465029882537536e+00
1.681153816902916090e-03,-2.431775833844249026e-03,-9.796344476273052493e+00
-3.712367643950033325e-03,2.297787493472660657e-03,-9.791310476527693041e+00
5.644681170432640140e-04,-1.087431626581468382e-03,-9.797022128379328620e+00
-5.723335119450584591e-04,-1.988201463847603760e-03,-9.789907655870740300e+00
-1.786380522231580852e-03,1.720043258547059375e-02,-9.794612426516675185e+00
-1.703817502675446238e-03,3.180484564921383893e-03,-9.785840811266542261e+00
1.817833181709147764e-03,1.545126225801501810e-03,-9.797575409464130303e+00
6.947513301287804380e-03,1.991237884495049987e-03,-9.805619199678650588e+00
4.917432373575444243e-03,-5.354576022681748620e-03,-9.795674062124387405e+00
-3.135631346022369013e-03,-3.292422354199066054e-03,-9.802892036640802331e+00
-2.297793637167623148e-03,-6.535694763935678483e-03,-9.794350168671524415e+00
1.734537844359713846e-03,9.031178104519477874e-04,-9.797299058184714582e+00
4.925739502048566074e-03,-4.295213333292246215e-03,-9.802558512564619519e+00
-6.881176986649142728e-03,2.419996889710071888e-03,-9.792527845282288368e+00
-3.489479781748668161e-03,-5.851550552094091431e-03,-9.796854006423284744e+00
-1.158500021841932801e-03,4.317356475537399881e-03,-9.803593231357625726e+00
9.572666292981101693e-03,-7.406391051519805148e-04,-9.800116636398984227e+00
6.081729921738935306e-04,-3.767197654991356740e-04,-9.795228044332006334e+00
-1.574432122029469821e-03,2.019320221111638831e-04,-9.793494912237862948e+00
5.641002893019394972e-04,-5.040596153302669439e-04,-9.790700239448632658e+00
-7.663724746423844839e-03,2.707948943721177979e-03,-9.797600269984725330e+00
5.022125244232339761e-03,-1.609178979410110747e-04,-9.793386561137770840e+00
-2.851563527201322196e-03,7.696671033179022228e-04,-9.791055879100362347e+00
-5.089080169453064593e-03,2.902366624876336846e-04,-9.792811381194669096e+00
-1.276299769118393115e-02,5.294881174619816416e-03,-9.795078325404135811e+00
-4.596689173193660959e-03,1.386361521704470928e-04,-9.797840434325172154e+00
-4.080809742315926955e-03,7.190422155406254838e-03,-9.792187610819626187e+00
-5.354665851524794892e-03,-3.477099682536173401e-03,-9.788470384826515769e+00
-2.576692912396200477e-03,-1.089892215593238432e-03,-9.795925049141217755e+00
8.321335126701187969e-04,-2.578060185016202953e-03,-9.798790457041439694e+00
6.825847186207107363e-03,-2.369720880539594003e-03,-9.790712327687254302e+00
-7.147998885543042566e-03,7.121384116375327478e-03,-9.798640920090026185e+00
-8.156636926970996584e-03,7.456126733787801775e-03,-9.797896911078357363e+00
-5.504232367834102982e-03,-5.001848762587962974e-03,-9.797581343382082864e+00
-4.750148707561300176e-04,-6.172574615156485763e-03,-9.800662057680716188e+00
4.894655570450149283e-03,6.244151584332205754e-03,-9.793833300349387372e+00
-4.259994218734152962e-05,1.705652521258550856e-03,-9.792399644826632610e+00
-3.803945592430276260e-03,-5.178192464683466917e-03,-9.801801300915229831e+00
6.798696856770546776e-03,-1.197302687928026958e-02,-9.786126799579150770e+00
-6.728806941287521388e-03,-7.017623211688842413e-03,-9.793370465448148821e+00
-5.635177212495926999e-03,-2.907273003736888552e-03,-9.789735321290512715e+00
9.932066273474111223e-03,-1.281544640473441772e-03,-9.790738205445030928e+00
3.924044331402405314e-03,-2.194885804170624340e-03,-9.799455016886177816e+00
-6.719275869514568450e-04,9.303732339509117322e-03,-9.793124342025684825e+00
-1.200498041678305485e-03,-4.496968100122661523e-03,-9.793436825823279790e+00
6.145699549267610688e-04,-1.088662361098389044e-03,-9.791402482822945785e+00
-3.034524854628267276e-03,7.318100592094031048e-03,-9.798956287331828108e+00
4.901356091920063517e-04,-6.094677345983099542e-03,-9.798297584149777251e+00
5.214346070238223135e-03,6.392716138621360594e-03,-9.790093449869218034e+00
-5.582365922142775057e-03,-5.440949540990736846e-04,-9.784481763650106245e+00
4.454324697732028361e-03,-4.937599915643561821e-03,-9.792007061363745990e+00
7.190327670065227959e-03,-1.802411487431145650e-03,-9.796028879667701972e+00
-4.552559171066676742e-03,-6.601080780500036618e-03,-9.805350933375549971e+00
-4.904494655987637168e-03,3.637359994302471686e-03,-9.799888341601738162e+00
1.906955125785021396e-03,8.387022158530241939e-03,-9.793978490772266454e+00
3.591134533497839578e-05,4.795462986803889806e-04,-9.799577687795849812e+00
-1.337556544087572900e-03,5.632747298807701253e-03,-9.788458902528896388e+00
-1.156620715703372403e-04,-5.213404149360724785e-03,-9.783029250876621674e+00
-6.171959663153299338e-05,-4.124557838365637379e-03,-9.792683820276950613e+00
2.952777155577077876e-03,1.091324787053736707e-03,-9.794667950462136119e+00
-1.884769547949266370e-03,-8.104438296998953475e-03,-9.799801820194952384e+00
6.774424906073509868e-03,6.274411949605477289e-03,-9.797557735174859062e+00
-4.295263467371566481e-03,2.508969311848215002e-03,-9.800389639480833637e+00
-2.634077770403924108e-03,-2.094042974056918409e-03,-9.789683269262319243e+00
-2.588736058625198348e-03,4.481748105300994295e-03,-9.792942540900357429e+00
5.709524211762400693e-03,-5.578981258718694256e-03,-9.791501078607726782e+00
6.320236068214731733e-04,-4.760354918775181431e-03,-9.805574344067823134e+00
-1.727890508224460067e-03,6.219313012221303581e-03,-9.802168266467106150e+00
6.231573019472078263e-03,-7.355107919665068543e-03,-9.801430412604476672e+00
6.320130286598761842e-04,9.133117736092608366e-03,-9.783996221419647199e+00
-3.534178553829843330e-03,4.469034981529681518e-03,-9.798614689466793592e+00
3.097606321195117522e-03,4.199757450035714566e-03,-9.790896656179141289e+00
-9.216691996988140049e-05,-2.591458590420447385e-03,-9.796189690639414138e+00
-5.181967129035266843e-03,-6.439264452038782373e-03,-9.791492445701445391e+00
9.085135896612804227e-03,-5.728669470823528204e-03,-9.792974785886313427e+00
6.733815561213864209e-03,-4.239069572202934164e-03,-9.790569223392108000e+00
-1.474894502588791362e-03,1.063416294878835947e-03,-9.791696989048663369e+00
-6.674594317430399514e-03,-2.800069604129305258e-03,-9.792412587212886876e+00
6.715052278986594243e-03,8.383410579149224232e-03,-9.796541383233337896e+00
2.391766140960725328e-03,-3.225953753486135618e-03,-9.792316470751320168e+00
-6.516020527274723854e-03,9.965425690502956006e-04,-9.803562133980095794e+00
-6.433750680556002410e-03,-6.072384104576778775e-03,-9.796647315196018724e+00
7.241074171980587011e-03,-1.879031625522043641e-03,-9.794379373659936050e+00
-4.856040201436480179e-03,-2.232345714943413228e-03,-9.794769704676685507e+00
-1.103010818687453695e-02,-4.908879609065997830e-03,-9.797572116530332664e+00
3.152332888884060852e-03,6.830848055192220193e-03,-9.792100663162832674e+00
-5.899686634234946152e-03,1.096192792997016533e-03,-9.798426225119223787e+00
9.346425589317159527e-03,-9.834651664866970316e-04,-9.792319202779035336e+00
-2.592068614160740383e-03,6.703430435863398076e-05,-9.800094634851211239e+00
-1.329054829494743053e-04,-6.230124976694231863e-04,-9.792828633948971628e+00
6.905532884081048636e-03,1.004593963413837575e-02,-9.790340183821690800e+00
3.951873712492641119e-03,-4.832946255141592172e-03,-9.795298551544032506e+00
7.297194542260161156e-03,-4.151661262787669296e-03,-9.780995944648518403e+00
-1.271682422792192856e-03,1.070088889405754629e-03,-9.794180892318012255e+00
-1.046843298621040214e-03,-7.321021323130847205e-03,-9.800243134142316848e+00
3.328752108118812007e-03,-1.882956577581429815e-03,-9.791315714283291172e+00
-2.104090750416860028e-03,2.253521034287951468e-03,-9.792741922728636084e+00
-6.588315636817568266e-03,5.740805618218236886e-03,-9.800140285765186476e+00
-2.648599824529440996e-03,2.035630996512590406e-03,-9.798272258407841662e+00
1.630005644211809240e-03,2.042609033901568536e-03,-9.784950625357229370e+00
-4.033155248949905902e-03,1.855388469265334189e-03,-9.795403545842544801e+00
-1.981697116727562224e-03,-5.376175119676607564e-05,-9.796812576635995029e+00
2.736514082701365074e-03,7.301937186054640108e-03,-9.796462441582105996e+00
5.506575670319340497e-03,1.078584528186144289e-04,-9.799520264431881955e+00
-2.357954535337168037e-03,-4.092245335223348643e-03,-9.795230394853277289e+00
3.698609097902164024e-05,-3.053388652051371426e-03,-9.788582404949847771e+00
-6.235828393017352287e-04,-1.081446350580506912e-03,-9.788223362179829579e+00
5.556118308479871502e-03,-2.461259329370986144e-03,-9.805200594849557305e+00
7.820555884056154539e-03,-1.348734012476124171e-03,-9.799989115961649233e+00
-4.668256423011669064e-03,3.363069000404924572e-03,-9.793344921247406631e+00
2.380686792225303067e-03,-2.912604508645868107e-03,-9.795078993715996774e+00
-6.179619383396031630e-04,-2.615070217338535778e-03,-9.799626511714299326e+00
-4.206864433314208942e-05,-6.780883522221910382e-03,-9.788280276230501897e+00
3.647163644523824209e-03,7.104379861709251556e-04,-9.800817396235538936e+00
4.007154638954487161e-03,3.327484836449541052e-03,-9.795961305885235504e+00
-7.528413585286991908e-03,-2.907477581211167193e-03,-9.796046068114209859e+00
2.667601627762826010e-03,-1.320565905362935943e-02,-9.798159088445734355e+00
-2.909451080237483288e-03,4.387377638696810314e-03,-9.799240756357777471e+00
-1.797341811944678201e-03,2.094799970314112098e-03,-9.799573487478069111e+00
1.962925598427267722e-03,3.811663362733832845e-03,-9.789649915265295377e+00
-2.069486215532509530e-03,-4.687856457046796904e-03,-9.791717273533349086e+00
7.762993681791281785e-04,-1.391517817379568124e-02,-9.792621271871208677e+00
-2.624512830424542351e-03,-4.200234839847488168e-03,-9.798917330789329583e+00
-1.089920380954001282e-03,9.218144830655507433e-04,-9.789598288344368626e+00
1.063050024917510175e-02,1.824023561730020275e-03,-9.799505804270317810e+00
5.134976330958278441e-03,-4.926872152620581646e-03,-9.797705296400032182e+00
-8.347991330637382842e-03,-8.756230979554208843e-03,-9.795842442890934976e+00
3.347482966766730187e-03,3.196626356747105319e-04,-9.792376979787393410e+00
7.074958168587347756e-04,2.014352599797892412e-03,-9.806629117270185603e+00
-2.211905246918166590e-03,1.445810876987475542e-03,-9.801376106313018255e+00
7.908071255292328100e-03,4.154954713233930882e-03,-9.801017345588070029e+00
-2.700365583774221381e-03,-2.012075779372790585e-03,-9.799513414935358213e+00
-2.887310989787483882e-03,-2.444620406030403089e-03,-9.795628864043287365e+00
-7.737100666994716630e-03,-7.388524830602738978e-03,-9.797454538928453971e+00
1.014762008750662086e-03,-6.058596627081976917e-03,-9.808277633318885691e+00
8.330128610182280149e-04,-3.930949497785338166e-05,-9.792499245807622543e+00
-3.148949307548372465e-03,5.216668194307516083e-03,-9.796657648527483886e+00
2.183310486366973543e-03,1.422044038935391607e-04,-9.794116014739042697e+00
-7.515423318404599803e-03,-5.951565437931046268e-04,-9.796855217278283234e+00
-3.967344462609261914e-03,-2.703923304343892105e-03,-9.800511493908151905e+00
5.479318710729824335e-03,-1.829171075936201867e-03,-9.788050892498251443e+00
-4.137037194999357466e-03,5.279677553646383928e-03,-9.795304501181185231e+00
-5.704508865694667488e-03,-4.645270697168039399e-03,-9.792925686765704185e+00
-5.907604693767734561e-03,3.086962472075141951e-03,-9.792833999840821591e+00
-2.108890356489667630e-03,-2.051850216026185683e-03,-9.792222825982651813e+00
2.722574194138489747e-03,1.389353147214777116e-02,-9.796965863884755876e+00
-6.018083522622856042e-03,3.419671216752233778e-03,-9.794758258619479463e+00
-7.292023026808831538e-04,7.722571662345361623e-04,-9.789177220353408870e+00
-2.780118783313125126e-03,-7.928107662207719425e-03,-9.796945429619491108e+00
-4.946625077129579266e-03,-7.319252775078092903e-03,-9.801524053689076865e+00
2.766350226969662134e-03,1.096059579835620759e-02,-9.799454377950823414e+00
-2.759837375386496095e-04,5.045037112958379241e-03,-9.790284421099952894e+00
-7.143007588288844550e-04,7.670147162593983839e-03,-9.798755631615122752e+00
-1.979719203735708002e-03,-4.038029960300305692e-03,-9.797397951698521013e+00
1.204505527267584787e-02,3.819774834411452866e-03,-9.797915421209715703e+00
7.459033265265821791e-03,3.056587440758457876e-03,-9.795742001172616398e+00
5.576390640317769806e-03,-2.484204887619208442e-03,-9.798130483770412624e+00
-4.460233959211352787e-03,-2.012731703733123233e-03,-9.797079499202579811e+00
-1.233053716283314142e-03,8.239058768499500640e-03,-9.798154021857008900e+00
-2.607805392344635445e-03,8.957390544265355845e-03,-9.798891213532154865e+00
4.022445007458203686e-03,3.540552650097257038e-03,-9.788339018156573701e+00
-4.964518435004481450e-03,8.936894037958402828e-03,-9.799206064642682179e+00
7.366387855730371394e-03,-7.602045689541143784e-03,-9.797124259377680389e+00
7.898134232462826129e-03,-3.233021001934958689e-03,-9.791201961189541336e+00
-1.408211396002501548e-04,5.501055821780378476e-03,-9.789207326385577446e+00
5.855731633067366194e-03,-7.762817473241769538e-03,-9.804177146293683975e+00
-4.788915329606992233e-03,-2.549614004805007481e-03,-9.794447589610987492e+00
3.332285747978380990e-03,-4.093423881549202456e-04,-9.794743751300075019e+00
6.056348508902569851e-03,-8.617508663796867585e-03,-9.803677593017079417e+00
-4.729489483645979951e-03,1.251304914987157613e-03,-9.791553977416707966e+00
-3.138833752259250712e-03,-3.757579852204859239e-04,-9.797508043996566940e+00
-1.089377001894509603e-03,-8.315519055042274940e-03,-9.791347244753145773e+00
-2.704414518428585254e-03,4.876472975191284355e-04,-9.799957313038554219e+00
-2.265415502223028146e-03,-8.967272813902676248e-03,-9.796909198301264610e+00
-2.809859846464826238e-03,-1.830799907398181908e-03,-9.797946183103544371e+00
1.865755983678100971e-03,-4.072787582706740737e-04,-9.788172671176013750e+00
-2.693125147267362140e-03,-5.524305415791282668e-03,-9.796411135699624850e+00
-9.581148108458331127e-04,-1.749822053422919163e-05,-9.796316031424442627e+00
-5.724238576565349700e-03,1.538077554595928750e-03,-9.799956216625858474e+00
-4.086307192533237577e-03,1.791756823772004854e-03,-9.794043452432553920e+00
-1.142454456304103048e-02,5.686574955730171882e-03,-9.797503307752327473e+00
-1.576118008022673288e-03,1.558913101598068162e-03,-9.794122797982414141e+00
-2.668783833188840063e-03,-5.411498196901812392e-03,-9.801199521262507375e+00
-6.896041649117423331e-03,2.705897873035377141e-03,-9.798512190708370539e+00
4.082203549602594732e-03,-9.482331327818078331e-04,-9.797843793103478305e+00
-4.547767559011292419e-03,-5.612643273246729556e-03,-9.792406362137759501e+00
-9.649521603677034889e-03,-1.327186363505823046e-03,-9.792909184476071616e+00
2.048677008892823594e-03,8.936869147715244613e-04,-9.798301778810662555e+00
9.367067880572460190e-04,4.973773635454584695e-03,-9.802509992915199533e+00
3.218221148322156482e-03,-4.176992848798232252e-03,-9.801861890329163884e+00
-5.283350540976448559e-03,-4.887720667740689043e-03,-9.791037804819110235e+00
2.678579168174314695e-03,-4.612265595846859532e-04,-9.790311454168222127e+00
-1.398263253908152599e-03,5.988205953136633772e-03,-9.798428424672032122e+00
-6.712299299777839401e-03,7.128286532246940269e-03,-9.791167050893307078e+00
-2.269381668089398042e-03,-4.952278450515593643e-03,-9.803639023986734813e+00
-2.521905835125996202e-03,3.516210387008460950e-03,-9.791597312620606175e+00
-1.302020116588218333e-03,-9.440627809509258284e-03,-9.789995027426686036e+00
-4.306178953113199391e-03,1.020219819427076527e-02,-9.796603551415694611e+00
5.670233466406623610e-03,2.857064595429863706e-03,-9.799090249297986333e+00
1.154963511335013564e-03,1.541154558070955425e-03,-9.796201232529782033e+00
-2.835325437897725110e-03,-2.620898066693120622e-03,-9.791153558386513467e+00
-8.322969958425258802e-03,6.193411791240991358e-03,-9.797977841609187166e+00
1.931537415196042629e-04,4.442091645600026572e-04,-9.790131551192519765e+00
-4.100046542919425982e-03,8.565862522887321157e-04,-9.800689350575927605e+00
5.432869690465801614e-03,3.021712944487226025e-03,-9.800977537637297843e+00
5.450108414975729509e-03,-3.093825979273109785e-03,-9.796828735813933875e+00
1.274921684880100589e-03,4.861333718389552506e-03,-9.793717228653258999e+00
-2.557719190182204585e-03,-1.019558550365113822e-02,-9.792834183575799045e+00
1.965031256144381643e-03,8.657694785256382988e-03,-9.797074573067629188e+00
-4.408734132926621190e-03,2.760671851843480001e-03,-9.794356884452223966e+00
1.968219302893300937e-03,-5.819368401829840345e-03,-9.801092287315135820e+00
-1.261170858588145935e-03,-4.711551050241673255e-03,-9.791226945620024935e+00
-1.768612044714153034e-04,-2.012948280637657725e-03,-9.792051847896539485e+00
4.967021520481606882e-03,-3.181853224543864950e-03,-9.799837058866199158e+00
5.012427871954936928e-03,-4.287664489396771431e-03,-9.792199692519142573e+00
-6.753707369379940116e-03,1.193160219700209815e-03,-9.796548116675500850e+00
-8.092984058803884620e-03,-1.994753824597985965e-03,-9.799293508941282482e+00
-4.713626897760763573e-03,-4.500193627357191900e-04,-9.795170904049737004e+00
2.085620899068132712e-03,-8.367895987064053083e-04,-9.798243775731412697e+00
4.373665562979691182e-03,3.797766551717826752e-04,-9.791573785030722732e+00
-2.361320503831926352e-03,4.536924197701527254e-04,-9.799402236112516817e+00
-1.542924757673485138e-03,3.931800983904032735e-05,-9.798449467984420735e+00
2.029317201602640931e-03,-3.797391606111390032e-03,-9.801020173099663779e+00
3.009276725548081215e-03,8.458178062312663933e-03,-9.796761324378040925e+00
-2.833020896874168578e-03,-2.216466721165984404e-03,-9.802231460446112266e+00
-9.084537195307216748e-03,-7.822869906292153827e-03,-9.792589328301550822e+00
3.589531229228653825e-03,1.519755689562581752e-03,-9.796453366086987913e+00
3.676726514897042056e-03,1.437244559907728970e-03,-9.796628135097426693e+00
-1.573887509971008507e-03,-1.940288251492192388e-03,-9.796680642833322850e+00
-1.915991284190421765e-03,-8.492473548167792791e-03,-9.800799505305455739e+00
7.094730298575322065e-03,2.685474829523489047e-04,-9.789377075602898159e+00
3.319364034763707099e-03,-3.141750893949417107e-03,-9.800678623652599342e+00
8.333794349393153569e-03,-2.726024321376203496e-03,-9.792781734500145774e+00
-7.767973254783608122e-04,1.654709676872915007e-03,-9.802864609525830275e+00
-1.276418507549042895e-02,-1.019402339832146606e-02,-9.796571317546812097e+00
-3.051562647882758144e-03,-4.379581193082703917e-03,-9.801163138352858795e+00
-1.798063839617078255e-03,7.916528977603077199e-04,-9.795336520024997995e+00
4.135277295689867259e-03,-4.449695917928586696e-04,-9.806468227178106289e+00
2.718956357869205427e-03,-1.095858143097606582e-02,-9.796064039223647768e+00
-1.228597347825291898e-03,-1.197789960422065807e-02,-9.785389467491418358e+00
-9.062051746284386505e-03,-3.967300518547741198e-03,-9.794223623656558075e+00
1.500137309589609502e-03,-2.597434911860633036e-03,-9.796199879066955774e+00
-5.969606895454967685e-03,-5.733995229763595713e-03,-9.799038442350514799e+00
-9.600061720043196519e-04,-9.101771658691856087e-03,-9.795127753725713760e+00
2.977447651108989677e-04,1.241415925230886924e-02,-9.790480564181383016e+00
3.716402228486266959e-03,3.049979930446772118e-03,-9.792396362207133720e+00
3.593117666421264365e-03,-5.939626521887557409e-03,-9.792785586308314194e+00
1.868057105191139267e-05,2.651631358762061071e-03,-9.794303802733459463e+00
4.389348706070498457e-03,8.699014162768699265e-03,-9.794325666395900853e+00
1.142851124813049936e-02,9.666465791943782207e-03,-9.795800226365496854e+00
-8.496026129163433693e-03,-4.499628498998221524e-03,-9.788903591901110701e+00
-1.442451444486993412e-03,-4.693705351108836722e-03,-9.793326713048520205e+00
-2.351680780529879101e-03,3.894474763283849519e-04,-9.784294115898845234e+00
4.018487003002931511e-03,5.348998975971617532e-03,-9.800890073843094186e+00
-6.345040080897413476e-03,1.992214003320466695e-03,-9.787597175281156581e+00
5.110785207010023340e-03,-2.351992885957060117e-03,-9.796453785966660277e+00
-9.463176625141099920e-04,-1.454672418786445579e-03,-9.789681706193620769e+00
-8.254224079623017490e-03,-1.320408469340100333e-03,-9.801690563453401950e+00
-4.172773941740860054e-03,-4.568386390929060625e-03,-9.794811193537157124e+00
-4.121633329531216748e-04,3.406214261341277468e-03,-9.792605092303711345e+00
6.782636817648550953e-04,3.720513029592538868e-03,-9.787743055981671603e+00
-2.685800365040551512e-03,5.693706829448997100e-03,-9.800652716834969524e+00
-3.302645782697053323e-03,1.480470114407027044e-03,-9.792395145573504323e+00
-8.877303063045667228e-03,3.282262182016536158e-03,-9.790768538779740737e+00
7.865399927319699242e-04,1.200837552606115336e-03,-9.787936264225676197e+00
4.653812975069523614e-03,6.205471140641231030e-03,-9.796315496853994276e+00
2.483244915382138481e-03,-5.293207207927862505e-04,-9.798825593006837309e+00
-8.812944675790477687e-04,5.765723882075233326e-04,-9.793623201792808430e+00
-7.298737811645246909e-04,3.555854489052853121e-03,-9.793153231966709171e+00
3.686860114428787329e-03,1.383848366692501039e-03,-9.789265036242671414e+00
-5.020034164203843706e-03,-7.925461716830536354e-05,-9.793749961227705469e+00
-1.141556317911144106e-02,-2.607579928088668477e-03,-9.799240709868456634e+00
3.328439106469931272e-03,7.591861655426964317e-04,-9.794154805093519656e+00
-3.821299241591254170e-03,6.232579323838285425e-03,-9.794852479301434656e+00
-3.383065940450117725e-03,2.034712884482545083e-03,-9.792435912266823195e+00
-4.286493305231545495e-03,2.161132471383160007e-03,-9.792284778861002792e+00
-2.178430032672280976e-03,-3.506038784040879045e-03,-9.792350379771324498e+00
3.705604416110520102e-03,3.953908596506850760e-03,-9.795317700582224063e+00
4.256059861374246640e-03,7.219293772195559122e-03,-9.789154047712264273e+00
5.131179365573819949e-03,3.194359625580760718e-03,-9.799737487199005059e+00
4.050974144085795967e-03,8.634774146888461038e-03,-9.792189478544424119e+00
4.429513895808558782e-03,3.217947999124160224e-03,-9.798294321859559730e+00
-2.643888013508630900e-03,-2.523789246486546692e-03,-9.791860612236924055e+00
1.236204463077042112e-02,5.871549151622842098e-03,-9.795496371580000528e+00
4.339932173973122705e-03,-6.246090750281943493e-03,-9.796978345492934892e+00
5.792790372659450092e-03,-4.419703866315972604e-03,-9.791792640716204588e+00
7.726835311308262629e-03,1.311157033855118656e-03,-9.800821853671815020e+00
-1.210217500948930318e-03,4.894409869148335507e-03,-9.792315213456031842e+00
3.819559462793509393e-03,-3.491645852971653197e-03,-9.790289175923208020e+00
7.202197005599999006e-04,3.610310806531096071e-03,-9.796093309463753229e+00
5.612763096763568292e-03,-4.372066581353257174e-03,-9.786880848844752734e+00
-4.599328565864388950e-03,-1.783282991097762636e-03,-9.795187566465392237e+00
-7.037766569566553630e-03,5.300475434329933802e-03,-9.800974061927560044e+00
3.813077092971217750e-03,-1.932709656022638025e-03,-9.790914467836838497e+00
-7.015686102688590414e-03,-8.295132441941688306e-03,-9.793635367457829588e+00
-2.117178128623398766e-03,-2.349083623578594217e-03,-9.792849424752279930e+00
-2.265564017967735665e-03,6.434025239900177748e-04,-9.791059894761062310e+00
9.806144461174753912e-03,-1.413697227218929436e-03,-9.796963878448014640e+00
-2.346415936640069456e-03,-1.362522827916701901e-02,-9.793090805930663834e+00
-5.132563641212787436e-03,-3.170084038768238716e-03,-9.786710827140668201e+00
6.337659469894544977e-03,4.825634867415198349e-03,-9.799797891545404482e+00
4.893596162442271497e-03,1.197490079576037005e-03,-9.801016168693937658e+00
-2.506226484811233113e-03,6.149046756806731025e-03,-9.791173544123372707e+00
-6.308679036813494290e-03,-2.195983903087655315e-03,-9.793533365098273435e+00
3.424303481902001012e-03,2.323814669780874861e-03,-9.788832529057815535e+00
1.001393746080860708e-02,2.288533118140477149e-03,-9.800371528284646416e+00
3.460755296595388695e-03,-3.705584459528530727e-03,-9.800830814827783399e+00
-1.134157897584793170e-02,1.505528150964692254e-03,-9.790709156728251372e+00
1.050707070281912568e-03,-3.830337285506857804e-03,-9.800983048628589600e+00
-2.367402552956297725e-03,6.837135457994779515e-04,-9.796966427600768412e+00
7.567554645053868601e-04,1.531743561085931746e-03,-9.785060216164003677e+00
-5.150537644717551218e-03,-1.913630514626997415e-03,-9.796595568763139639e+00
6.639078618490295951e-03,9.544399959644950813e-04,-9.798323031447644382e+00
8.455894799305356535e-03,-6.097719711687785669e-03,-9.797040011714074126e+00
-3.829081139549298136e-03,7.578207938000910450e-03,-9.800298940578020535e+00
4.279962483916741750e-03,2.417502626226700245e-04,-9.786453739674604080e+00
-3.425600534102913805e-03,3.098253506707168009e-03,-9.796440925873486805e+00
1.293225043418730694e-03,1.026171777027898822e-02,-9.798174624730766169e+00
-2.487344240319841124e-03,3.439227356891219698e-03,-9.788813482437616287e+00
-1.320675583556895185e-03,4.919794433140970910e-03,-9.787453666480377734e+00
1.849052276045968319e-03,-2.124633392587451600e-03,-9.794633914480103343e+00
1.093326970199935341e-02,8.789003755425304001e-04,-9.801601811063299863e+00
-4.421797677699434428e-05,-3.903398024862755715e-03,-9.790458903326785034e+00
8.459189081429965840e-03,1.196516174967505010e-03,-9.800073671348835447e+00
-3.849760892838270036e-04,5.429996570218847268e-03,-9.793661618878241271e+00
1.472346698922310029e-03,-4.184159549847940411e-03,-9.789560164349099480e+00
-1.918156665263145207e-03,3.290894921541471542e-03,-9.794647461563348756e+00
3.999444097112721946e-03,5.348956008626097429e-03,-9.802594253812317859e+00
-4.415382954327567305e-03,-1.549941689504335130e-03,-9.793953673942013438e+00
-1.855823954541157151e-04,8.393770241770516852e-03,-9.792638778626090001e+00
-4.584712386142046625e-03,-6.416335974922043710e-03,-9.796393905965183890e+00
2.333222723670096751e-03,1.442436890943674371e-03,-9.789780617310039901e+00
4.598521008901100722e-03,1.109138094954140001e-02,-9.800911814533685984e+00
-2.380001276554927474e-03,-5.788421702004034088e-03,-9.794150794605819499e+00
-7.068452314206744198e-03,-1.732053774890466788e-03,-9.800124807727950582e+00
3.043439171697075608e-03,1.175892190178469757e-03,-9.787956058961270855e+00
3.622758497155572147e-03,-2.338447370635003599e-03,-9.789224782596479102e+00
-2.257172946131526421e-03,5.228867241486918893e-03,-9.799030950034943288e+00
9.124227009303396974e-03,-2.099608583103613341e-03,-9.786594422582762576e+00
3.090980040159979625e-03,-3.631590212715256512e-03,-9.792173865722789472e+00
4.846856526562548853e-03,-1.072307796621752712e-03,-9.790688116860277290e+00
5.642247446132873673e-04,5.299582576418072725e-03,-9.799667809359439374e+00
-1.047761680753785812e-02,-8.608909906706232323e-03,-9.793452599902693123e+00
-4.162965950792053837e-03,-1.710572173680106152e-03,-9.796168864463634662e+00
3.048312790125025807e-03,6.124797590910507558e-03,-9.789601684073090837e+00
-4.156508228409560093e-03,4.608488393417894610e-03,-9.800999243434208807e+00
-7.851882752294319853e-03,-4.152322998656294770e-03,-9.800484366717251206e+00
4.647082594860810212e-03,4.238157868774078928e-03,-9.786747887698426851e+00
1.275461116141105933e-03,3.417190312536702319e-03,-9.793145392082280409e+00
-5.174926356758877480e-03,-7.433674327383117501e-03,-9.797046938688108497e+00
4.064458971783580649e-03,-1.989660734643917614e-03,-9.797819815144480415e+00
-8.799506999479098784e-03,2.212145727025267676e-03,-9.803806574165189858e+00
-5.188223542371411291e-03,-5.476774660111445765e-03,-9.803032261126004343e+00
-5.584956496193936495e-04,-5.857098212689216968e-04,-9.793119390444100958e+00
4.857747296706300955e-03,2.543834844015694166e-03,-9.795080272427952650e+00
-6.858791735341084397e-03,-5.674631970763497658e-03,-9.797824817776827899e+00
-6.058883806702470599e-03,3.956014439500026535e-03,-9.796037222035804959e+00
-5.513916060966751395e-03,1.144169035952193481e-03,-9.794992226051657980e+00
6.733962695674102980e-03,-4.430999414614465726e-03,-9.800989157006851471e+00
-9.143683590724911367e-03,6.236220892570231052e-04,-9.783806502799256677e+00
-5.156388825031755184e-03,9.430407625642471883e-03,-9.789646698864091334e+00
-2.085293552759131760e-04,-4.877758771320446149e-03,-9.802371025536441351e+00
-1.197456865140511008e-02,2.940550468737861134e-03,-9.794871235947773869e+00
3.772630485940704249e-03,6.371145432137183772e-05,-9.799070397670227806e+00
-1.065897384669745734e-02,-3.619282835862696690e-04,-9.802854195110262125e+00
-3.179351794552450275e-03,1.276755312510535756e-03,-9.797147665887125711e+00
-9.950481717880580237e-03,-4.668312042507273725e-03,-9.795243893799593593e+00
1.164341300637277039e-02,3.640486092064606008e-03,-9.793496172645005160e+00
-4.221301612843045628e-03,1.387655437208868401e-04,-9.801969914208616075e+00
2.377553700551284649e-03,-8.184079235630470350e-03,-9.779243127029301874e+00
4.534232315453027434e-03,-2.104284292545220356e-03,-9.794031091994044758e+00
4.674841590735082705e-04,-8.748698134648139058e-03,-9.790525504957487968e+00
-8.192825562888439352e-04,4.615105818484893999e-03,-9.798132454859523222e+00
-6.843573675574278307e-03,-2.593169940895204834e-03,-9.786435697413716994e+00
4.085805965714754337e-03,-1.337853602089110515e-03,-9.793908079353180085e+00
-8.336049972255529447e-03,9.357112595119081513e-03,-9.796506881543049161e+00
-5.220632810779808099e-03,1.674681339529920801e-03,-9.794772744272828291e+00
3.637223097640535606e-03,4.976027612101216989e-03,-9.790671090206407357e+00
4.112501734755997541e-03,9.524151399669375517e-03,-9.801814098785513352e+00
-8.662567690911128146e-03,-2.678065314775531468e-03,-9.795562945241890418e+00
4.768862174056005300e-03,6.323409530347746943e-03,-9.792945586784009393e+00
-2.875662560205485916e-03,-6.612928868397036260e-03,-9.790423782464170444e+00
-1.005907815779915129e-02,2.691128351026358142e-04,-9.801170110405621472e+00
-6.215956950808213324e-03,1.855565505057699648e-03,-9.790231507393176713e+00
4.392478093488121223e-04,3.740262777809137251e-03,-9.793758857410875152e+00
-9.190379614976968911e-03,-5.536516267266596882e-03,-9.796463359755374967e+00
-1.086911723297085373e-02,8.561869209924162852e-03,-9.794464013801750468e+00
-2.933275370771469895e-03,-2.667458401812145777e-03,-9.795335314314208119e+00
-7.347586355175303799e-04,1.848627908779542110e-03,-9.799929492010484466e+00
-4.419401404265835102e-03,-5.456666706413119614e-03,-9.796696094879415284e+00
-5.674421566465294399e-04,4.244246001654632290e-03,-9.791037302695162481e+00
3.151609829304814151e-03,-6.082502466692537961e-03,-9.787617034590915921e+00
6.544366243984175990e-03,7.259277430148513774e-03,-9.794697671691293905e+00
-9.881670073435958653e-04,7.074560624188188686e-03,-9.791921876281586279e+00
1.708901454943014334e-02,-7.689690611086459973e-03,-9.794164950286704752e+00
7.320729906664841941e-03,7.063303127208628990e-03,-9.794954586453195944e+00
8.097492065454703694e-03,7.422059861016571574e-04,-9.798914272867037312e+00
2.840291641142505511e-04,1.355238127005924803e-03,-9.786775702490208673e+00
8.612069592947633676e-03,5.334019759088721307e-03,-9.799851078062117082e+00
-7.162565484206869122e-03,6.327835711680830123e-03,-9.796529153300641113e+00
-6.210623511985278143e-03,1.997422607020041003e-03,-9.792500885023084578e+00
3.947406097473291249e-03,-1.247279885490101608e-04,-9.788135317175838068e+00
-1.099887324059682864e-03,-3.362689177944983270e-03,-9.796331970370758313e+00
-1.943221023030033577e-03,-5.957535196323036734e-03,-9.802999123266356918e+00
3.428321926376863039e-03,-3.984897019012153228e-03,-9.797647309040328878e+00
-1.052657893344139187e-02,-3.391231488361629107e-03,-9.803068201836641293e+00
-1.994648454816579271e-03,-2.601168326462388429e-03,-9.797467997384179839e+00
8.638043210551440439e-06,-6.050599854503583598e-03,-9.799123951894372908e+00
-3.101133603691000676e-03,5.355965807447015357e-03,-9.794468966351123740e+00
6.221905944941269126e-03,-7.285488084499073223e-03,-9.792647652421532456e+00
9.113373018583588578e-04,1.092523855493805589e-02,-9.801126364006066183e+00
-8.465856343797617881e-04,-5.903219778634320562e-03,-9.800530940389910128e+00
-2.144425049531438563e-03,-1.467427117482596449e-03,-9.795197944906702148e+00
6.471620700960301065e-03,8.930002373109971556e-04,-9.792710038872698419e+00
-6.259824901945368857e-03,-1.588588705441370836e-03,-9.793377830891534686e+00
-2.489043011554868418e-03,4.738225583405820604e-03,-9.800766465602103850e+00
3.304958997536720094e-03,-4.622998080149644425e-03,-9.801285908973460081e+00
-5.400564524393396820e-03,4.855293291778116534e-03,-9.802431006648335554e+00
-1.714430244824077104e-03,-9.601698794367865414e-03,-9.796185393089929860e+00
2.772702277623018911e-03,-4.695317448666538884e-03,-9.794322247512306845e+00
4.368469941363642244e-03,2.910809392113479152e-03,-9.796095246827229985e+00
4.326848998380624159e-03,6.128304347333991646e-03,-9.793214410142939030e+00
-3.200196596968570700e-03,-3.467016842534138225e-03,-9.787228796945447229e+00
-2.226231279855160703e-03,-5.585332530535809656e-04,-9.794591007966516827e+00
-5.242886745794901084e-03,-2.457254906618179264e-03,-9.791142472354367854e+00
-1.155509540212545580e-02,3.645257809356701288e-03,-9.807251458714944192e+00
-4.800371573355582087e-03,-2.972751170803700650e-03,-9.797814701654731451e+00
-6.980118066940227883e-04,-7.793754871691657184e-03,-9.796598716371695659e+00
7.747922010168750359e-03,4.288825027662829942e-03,-9.801610939319742144e+00
2.432775797391453516e-03,2.907418996697413126e-03,-9.790954908258045819e+00
6.268968014109400043e-03,1.391417452465472035e-02,-9.790366261263457659e+00
6.016329380294548404e-03,7.759602322094249702e-03,-9.786657741990858028e+00
-5.943010021874830379e-03,-5.630741195586611014e-03,-9.787478037540626730e+00
1.614474425813792720e-03,5.419581858143950569e-04,-9.796309551676801064e+00
-1.222619414820672696e-03,2.140454679107429547e-03,-9.789254062672881673e+00
2.668230545574145490e-03,5.762381007768802542e-03,-9.798051321850154594e+00
5.348899401768225301e-03,-3.990046794614225678e-03,-9.793524877279203622e+00
-1.092006922918072748e-02,9.452157557425214587e-03,-9.795474817099156795e+00
5.107316472112103517e-03,-6.064854147562645861e-03,-9.804038745900182761e+00
1.351614524617376131e-03,-8.230019448060161766e-03,-9.789149819690134535e+00
-2.034080314560739611e-03,-4.103876442104591876e-03,-9.783544671054121622e+00
-2.370698068403183367e-03,5.284906790001164985e-04,-9.796487381445754039e+00
4.292011602557223825e-03,6.934522279388125737e-03,-9.794368965037321573e+00
-3.859654248420873405e-03,-3.318675762972381118e-03,-9.796531052263173223e+00
-8.892384670743418845e-03,-4.047985317003513321e-04,-9.800680447309302323e+00
-1.797778092908015142e-03,1.342701616606040713e-03,-9.791616490660057792e+00
-7.559701298769023678e-03,8.408699582515392207e-03,-9.795141916211814959e+00
1.379120989261322337e-03,8.130132085034438025e-04,-9.798699555451930721e+00
-4.836167481216163862e-03,3.647198203287531273e-03,-9.795078113516533236e+00
-7.044276002271962489e-03,-2.458992300987456001e-03,-9.778988759328100855e+00
-8.245064341985923820e-03,4.198649876218875712e-03,-9.788071597910704469e+00
-3.553090254508684594e-03,-3.815426049196501707e-03,-9.797938461761315665e+00
-2.444105085870516229e-03,2.163275217974955020e-03,-9.805187141713053833e+00
-3.103095194369034698e-04,-3.400447258403431049e-03,-9.798238978106597941e+00
-5.774758805599680342e-03,-4.146986414804177193e-03,-9.795829998409343986e+00
-2.935290601719959137e-04,6.742479468450467660e-03,-9.799033659828911169e+00
-2.063819534450294941e-03,-5.669017193454637879e-03,-9.797706366810006173e+00
1.970160594380660022e-03,-5.426329306736518698e-03,-9.790899930056506051e+00
-1.964112738534837949e-03,4.918402096704706412e-03,-9.798405871573372394e+00
1.147467647119799258e-03,-9.101487169393174953e-03,-9.799371352886952380e+00
2.505541826689742287e-03,-7.874741523527691023e-03,-9.794164393864839724e+00
7.567393182705901139e-03,-1.458444118475378960e-03,-9.803383355954373712e+00
-2.628049657140175098e-03,-3.687906067198889267e-04,-9.797617995340694108e+00
4.481046993969036232e-03,-5.424069986373399738e-03,-9.798555525889296902e+00
-2.923736161421205525e-03,5.307196621349884007e-03,-9.799961395164508815e+00
1.633855347163986824e-03,1.557572885825860270e-03,-9.798605325941288413e+00
4.423626306271223607e-03,5.969699513945999660e-03,-9.792894333331927825e+00
-7.821427702042641839e-04,2.957114558597895640e-03,-9.797041012649245317e+00
-7.508225803205783450e-03,8.123625262588359680e-03,-9.796036910294811051e+00
-7.653646508063839324e-03,-1.360138465211667598e-02,-9.789829735027698376e+00
-4.915895291594421339e-03,6.663324553200219123e-03,-9.793660976332748902e+00
5.225282757134661754e-03,7.043835093334929222e-03,-9.791980175980112833e+00
1.204322588066820358e-03,-2.820625997733352749e-03,-9.792721425949107328e+00
-4.502598542332950267e-03,-2.554487294091323593e-03,-9.786954617028218451e+00
-4.066219253115214809e-03,-3.330332033770590141e-03,-9.801305390128693062e+00
-8.402745447173618973e-03,6.216470154872167156e-03,-9.788977378858778167e+00
1.274335976150699906e-02,-8.763902829224941380e-04,-9.797847347540196594e+00
-1.910594131030765499e-03,-2.475329528491415632e-03,-9.803627037352411477e+00
-5.199128328203172014e-03,-8.918064261030492212e-03,-9.795929091985652093e+00
-6.388933000192466988e-03,2.868965975376235305e-03,-9.793135967382728069e+00
-2.441929361739214772e-03,8.011654057117704661e-03,-9.800897887813253107e+00
6.396224267872074182e-03,-3.094113686678553760e-03,-9.799527452719948073e+00
6.575283803295990832e-03,8.862536070286267109e-03,-9.799435167009519887e+00
-3.348665947223868587e-04,-1.699726050173959099e-03,-9.803979930330129378e+00
5.495777330213250491e-04,7.911131782020480339e-04,-9.795951016656390564e+00
-5.126744623036600529e-03,1.826494021453667739e-03,-9.802768536862352278e+00
1.799630604932351370e-03,3.077023130235535808e-03,-9.795413415081426933e+00
1.611325634112046549e-03,-8.561593436022201355e-04,-9.796745643131330894e+00
4.324941178512442357e-03,-2.004573879189484615e-03,-9.786717863744694768e+00
8.435055097081331152e-03,1.660675219189424985e-03,-9.790084464598661995e+00
-1.364353784329218550e-03,4.488438608928654980e-04,-9.795939877386098615e+00
8.922960112194068018e-04,6.621515705195493923e-04,-9.799390852478932601e+00
-2.089605421795979242e-03,-4.080398347190735200e-03,-9.804747605342447159e+00
-1.323456447294391828e-03,5.585206796853328225e-04,-9.791803814215452206e+00
-3.259151771293906843e-03,-2.554114180203692804e-03,-9.797620579661790785e+00
-6.466357559512455298e-03,-5.804396060633827247e-04,-9.793791662804066434e+00
2.487577755025459185e-03,2.421801257606556214e-03,-9.793099507769964518e+00
1.073271089212220718e-03,-2.445922553514966180e-03,-9.791826446829432484e+00
-2.056723124443561677e-03,2.502591190719229228e-03,-9.793594378221719410e+00
-3.421132134398240272e-03,-1.107231839816442617e-02,-9.794301881551726652e+00
-1.068074124068728314e-02,4.610699412088769904e-04,-9.794024344523634795e+00
7.058346132242007123e-04,1.277912603574491790e-03,-9.788870393400467051e+00
1.535626140749072471e-02,-6.706913325325500157e-03,-9.789307029750416334e+00
5.766484322638349737e-03,-4.502519854548645353e-03,-9.795116871042122142e+00
6.129878955801796279e-04,1.877526478139197093e-03,-9.792998182455434630e+00
2.053757772337572987e-04,-2.469176769306539922e-03,-9.790064161042723256e+00
1.221116130589415321e-03,4.766151496135706891e-03,-9.793643617773010845e+00
-3.485182150200188522e-03,2.891129105616391162e-03,-9.799934555269308234e+00
-2.476278586318319142e-03,1.037984833341419437e-02,-9.804196273342977719e+00
1.910862009635048119e-03,-7.952523164375474574e-03,-9.798796958224533782e+00
-3.753246038595438490e-03,5.655369837939818595e-03,-9.787122294177109438e+00
3.643055058381474212e-03,-4.694955608744598896e-04,-9.792261362858006635e+00
-1.770963351380043516e-03,6.932282129497483597e-03,-9.798008038699439481e+00
6.003368522442980616e-03,-3.699287369853568232e-03,-9.788674831209410954e+00
-5.693507257654818916e-03,-6.421556994284810874e-03,-9.787848782194620512e+00
2.894161966335442350e-03,1.864806958221910125e-03,-9.799559857002474672e+00
-1.470509642681200411e-03,-2.167404483559458046e-03,-9.795367520840759568e+00
9.416473004246325371e-03,-2.979249718350045466e-03,-9.798990565301995304e+00
1.974468102498020110e-03,-3.163188016570249450e-03,-9.795499070013635290e+00
1.776260368390473500e-03,3.714930975514296914e-03,-9.795321575215753640e+00
5.178649554267182945e-03,-8.881888568294884351e-03,-9.789658885508680797e+00
4.762385482344062317e-03,-3.695596520704648447e-03,-9.800784504094503191e+00
-2.258813353078551345e-03,-1.252198299950620271e-03,-9.799773703651467827e+00
-8.310802064498738762e-03,-3.835678682043697912e-03,-9.786159133027444668e+00
1.212013215453512085e-03,3.407045224002188365e-03,-9.792555205972639953e+00
7.763764253942792397e-03,-3.667455253299178528e-03,-9.797847489112408326e+00
-5.668452917194632783e-03,3.300972685627217434e-03,-9.789014716564608420e+00
5.798116860781928831e-05,3.830576672218982334e-03,-9.796624258863845469e+00
8.345363735082909809e-05,-6.065691286344342126e-03,-9.791526807125471521e+00
-1.885874223055201320e-03,1.662455129034114305e-03,-9.800882702358023835e+00
-4.482154587063426864e-03,-2.141513908386341244e-03,-9.790533017755047140e+00
5.163216654933061112e-04,1.126611201245921855e-03,-9.793609808575828524e+00
-3.147084221211985332e-04,1.141687683080967828e-03,-9.787218112959358507e+00
-1.685077950771534739e-03,3.572279108359602360e-03,-9.787214114805681930e+00
-4.263101676724861413e-04,-3.762735766415944288e-03,-9.795188235822998024e+00
-2.081408980526382180e-04,7.161150751888461889e-03,-9.792689439347251223e+00
5.935879768758305086e-03,5.603305271667881164e-03,-9.789178214830055680e+00
-2.249962355836608759e-03,-1.408059239992408805e-02,-9.804158210194696466e+00
1.444084639359884906e-03,5.057867240138250176e-03,-9.793133042540237199e+00
1.807199412287222593e-03,-6.358642083506688830e-03,-9.799627033882048366e+00
-3.694264656017909754e-03,-3.577288664807950526e-03,-9.799789288682463351e+00
5.837101141823467171e-05,7.734409512458866390e-03,-9.798186133542781562e+00
2.694147368431943843e-03,-2.293231996012408142e-03,-9.799111958851769444e+00
-1.530474278916123905e-03,-5.109516141622395813e-03,-9.802277070954389160e+00
3.436934302680439302e-03,7.305569247801930056e-04,-9.798702610250900946e+00
5.391517469299530844e-03,-1.000675910217964371e-02,-9.794768269911930503e+00
-5.161047140970293151e-04,-9.009913350971971357e-04,-9.786990784553120548e+00
-2.427672067302618416e-03,6.739672613906132898e-03,-9.788493013635790163e+00
3.680880625268609548e-03,4.569333194696039747e-03,-9.790515438205801502e+00
1.305144776333996869e-04,-3.267901791277747024e-03,-9.790513820356277819e+00
-3.650854590282906140e-03,9.224031132824205351e-03,-9.793081297133495511e+00
-7.573408617491669999e-03,6.423326356630663404e-03,-9.788136841456648085e+00
6.853161392230162387e-03,2.477631152923367649e-03,-9.792085694993671652e+00
5.555301129693440351e-03,-6.310589273921527517e-04,-9.791586627438109147e+00
4.779799889812325758e-03,-1.260692731103015864e-02,-9.801511993068297457e+00
-1.547951705067782905e-03,-5.745423226407505093e-03,-9.797632953426706592e+00
2.159701616011097149e-03,-3.119733536602993995e-04,-9.798609973586623667e+00
-4.185605966670968327e-03,-3.273383035176361758e-03,-9.798852005635261264e+00
-7.033685667009847119e-03,-1.136695398964626593e-03,-9.795787064658298959e+00
7.102418756667901178e-03,1.111175917592157128e-02,-9.810032622675773695e+00
1.727121394512450567e-03,-4.991094837518181282e-03,-9.797451034229586853e+00
4.019741458570335636e-03,1.693769999103483673e-03,-9.790244855702891158e+00
-4.823029053984246271e-03,1.215977737272845582e-02,-9.797078317284512394e+00
-1.087718589504178433e-03,-2.522214654875454265e-03,-9.798335316609415813e+00
3.208229451340825333e-03,-1.104464179429909092e-02,-9.794469457685060831e+00
-1.094172907653823655e-04,1.400036995249415986e-03,-9.798116121202236073e+00
5.750532148592422260e-03,-6.174593552657892462e-03,-9.789280953061854973e+00
-6.596930678582256340e-03,1.328547606657708028e-03,-9.785824608696533033e+00
3.589195230691265889e-03,2.851497613362210994e-03,-9.787879060560863209e+00
-3.557451287330983328e-03,-4.888486200559580275e-03,-9.793613583187697813e+00
-8.094980745631059817e-04,2.501945859927600909e-04,-9.792670645935507068e+00
3.545319014538673985e-03,-2.505057978936933022e-03,-9.785648368563412802e+00
4.504367056722925408e-03,8.836770859019827144e-04,-9.796687784121186127e+00
2.107270593659448920e-03,2.724669670505875524e-03,-9.793642565127930411e+00
3.810197237996261563e-03,-3.984625470951936622e-03,-9.802832597489834043e+00
-5.525183131562237557e-05,4.341690438461079556e-03,-9.798668328971103847e+00
4.788527759768144119e-03,-8.136824377441917097e-03,-9.788557691786378356e+00
2.220762026358718416e-03,-2.606528265430164276e-03,-9.796788975090468199e+00
3.375002598002311074e-03,-3.125903104505891325e-04,-9.794867247500917529e+00
-5.354492348319457888e-04,6.146920266345945461e-03,-9.787610531691617766e+00
7.590783314235473832e-03,3.078296929917077266e-03,-9.794990041609432652e+00
-8.247577758001854720e-03,-3.106418802683305787e-03,-9.790387561377128733e+00
-9.298495319905425438e-03,-6.696366329431139956e-03,-9.794928822303358373e+00
-1.253142811893792272e-03,5.970234507287896196e-03,-9.790264390324502131e+00
3.260615751526870811e-03,4.855833515696189248e-03,-9.796045008403901022e+00
-1.842878216406713347e-03,8.487449046529867841e-03,-9.794163651284941707e+00
-1.414716186600523465e-02,-8.076752155732816810e-03,-9.795154601934857652e+00
1.935027961299364951e-03,-8.291117301209559656e-03,-9.790308116205723721e+00
1.643349174775205271e-03,-4.773801311140368937e-03,-9.796376483387708944e+00
2.501251358053314337e-03,3.222848090278945723e-03,-9.795823303682565708e+00
3.130948748781881268e-03,-7.918412053646016122e-03,-9.799152005813624555e+00
-6.892271937872625209e-03,-8.096653407689930956e-03,-9.784891620742081741e+00
4.243777143280091577e-03,1.520055904199737844e-03,-9.797181780541023954e+00
-4.655333047717376271e-03,9.703500175381667842e-03,-9.794877280932810848e+00
-4.035201430319367033e-04,-3.879748347342854269e-03,-9.797985616072251602e+00
2.428007808764305782e-03,5.069916309802464764e-03,-9.793222745748799696e+00
1.210592692530186110e-03,6.937744821299360147e-03,-9.794692483753928869e+00
-4.263310917754680601e-03,7.579523353935550475e-03,-9.793585133137939991e+00
2.733620094513689383e-03,1.852940621714386322e-03,-9.805351284621711017e+00
1.579969939340604423e-02,7.903776801027618745e-03,-9.795852877952906823e+00
5.230788949233232052e-03,3.907074411801492826e-04,-9.797015591615343411e+00
5.863166777088936986e-03,-9.989148271045383397e-04,-9.788711917731101053e+00
7.451338226393614851e-03,4.272819518574681209e-03,-9.799014323674622773e+00
-1.737742339860792523e-03,-8.547775502080856569e-03,-9.796202442981210012e+00
4.227448343852334596e-03,-2.776045068362516591e-03,-9.794008913987696019e+00
1.269488864385085077e-02,7.226071451003928357e-03,-9.796471899268295758e+00
2.440521526564340925e-03,5.821585197681706722e-03,-9.800707748356947135e+00
1.247247452959199384e-03,4.460854536309284517e-03,-9.793670006678523166e+00
-3.401261884344030121e-04,2.133471217639324163e-03,-9.794252629275110422e+00
5.692188141544717288e-04,-8.255041359632989476e-03,-9.788894778640775840e+00
-3.169747262896296849e-03,-8.969983569625555875e-03,-9.792598847908665860e+00
-1.152925703535412350e-02,8.229403372378537446e-03,-9.798719339467961476e+00
2.455695995572838505e-03,2.108664008028194106e-03,-9.796426609957260112e+00
-5.104965896568537664e-03,-1.221183972265750366e-03,-9.793451391968936548e+00
-2.003574523347096282e-03,5.658423222319130218e-03,-9.799450159191673393e+00
-3.065690410148985343e-03,7.144135669848163291e-03,-9.799598705820789846e+00
-1.004531870166404210e-02,-3.527128828418033858e-03,-9.798193754287888524e+00
4.620873840335414269e-03,-6.571297212113178833e-03,-9.794242496262548059e+00
-4.938862974338048203e-04,-1.933895407489071277e-03,-9.790023833320155688e+00
4.150878709240172007e-03,-6.356842731577735592e-03,-9.799971706154387618e+00
3.369280013328664232e-03,-4.669134740716090158e-03,-9.798868621409411617e+00
-7.432723114427064849e-04,-3.208630722291108944e-03,-9.790222476325249445e+00
4.520504232741989585e-03,6.519913811620575228e-04,-9.800894444518377213e+00
9.792988782760803090e-03,2.886419257604042575e-03,-9.788447286566659855e+00
-1.696899935669500840e-03,-1.206709324881269536e-02,-9.792753957138666365e+00
3.183256195847373668e-03,9.414531590464675923e-04,-9.790074851447123194e+00
2.918522851378751136e-04,3.570544134328597114e-04,-9.798125282576357620e+00
4.826169257838136203e-03,-6.101590724782395177e-03,-9.791873582624631922e+00
-4.163991849957326442e-03,1.089126995316669301e-03,-9.792632803216365645e+00
-4.733208390389641654e-03,1.624362986016921178e-03,-9.793675181228072901e+00
-2.677493465813705290e-03,-3.788781801172536046e-03,-9.797901720651836399e+00
-1.613445651529936799e-03,-2.771308810308458458e-03,-9.800318623937791074e+00
1.561691127703159713e-03,-7.133369246672670652e-03,-9.800245965400311121e+00
7.398219938307902012e-03,1.859747285755335329e-03,-9.798526241071312981e+00
5.426210048350058436e-04,-1.612693263668805326e-04,-9.790835698424553257e+00
3.428310050076869035e-04,-6.541784957255138144e-03,-9.795862509278629560e+00
4.275902638389111584e-04,3.689492574600878108e-03,-9.791463675050085413e+00
5.422737424168512120e-04,-2.049342224927158337e-04,-9.791630370873365408e+00
-8.753453070055377747e-03,-1.073564116988645969e-02,-9.801491520196268681e+00
1.354983674551905361e-03,4.919010716854993470e-03,-9.799340135627927495e+00
-4.715085171328753204e-03,6.990339731491525700e-04,-9.800923372194649374e+00
-3.754832834794666167e-03,-2.505322442928679776e-03,-9.790438348948121927e+00
2.500085903452609580e-03,-6.594140566789230204e-03,-9.800067984968787727e+00
-9.298910196307815998e-03,-7.360034646250856322e-03,-9.802767618865614097e+00
2.841602962833618753e-03,-1.933883547601663623e-03,-9.801295759980344968e+00
-3.469720563121061856e-03,-3.958585811668796119e-03,-9.784096289107710120e+00
-5.915456208048899649e-03,2.675089556676368916e-03,-9.790143037461792375e+00
-1.373896527158535719e-02,-1.738165412647073044e-03,-9.796102858862473894e+00
2.327317087462920341e-03,1.879643224803703066e-03,-9.788118738705509969e+00
-5.492155860217179907e-03,-1.833936093682270695e-03,-9.783906183470984175e+00
-5.035538365409230645e-03,-6.557212094339254053e-03,-9.790160934077926314e+00
8.078205673585376473e-03,-2.057878597360811388e-03,-9.791339445294951815e+00
4.699376011537953653e-03,7.914963816242183772e-03,-9.787746956772558349e+00
9.745188690040443302e-03,3.171834605785408059e-03,-9.790567111981307136e+00
-4.062369752841997646e-03,6.478700470632145882e-04,-9.786933795090853039e+00
-8.617280088946533897e-03,5.056638901080171054e-05,-9.791114357662420886e+00
9.523250963803731733e-03,-2.152842231141481252e-03,-9.800434364122329711e+00
1.310390020306913305e-03,7.725563718668256377e-03,-9.796889485648573981e+00
5.014572590103684793e-03,-5.102729762629893556e-03,-9.799486802770067229e+00
2.871973371123578370e-03,5.798365479325549507e-03,-9.788059514755016011e+00
-5.041655347325296917e-03,-5.081711126370029932e-03,-9.786068514908324190e+00
-1.763273975044883906e-03,-2.884033979893866825e-03,-9.797117631072852717e+00
-1.637932685677368546e-03,-5.241426342239465484e-03,-9.800995517751934116e+00
-5.776998885686046407e-04,-4.520420501319124922e-03,-9.795683058012192745e+00
5.126314738947156157e-04,-5.443983892976246228e-03,-9.802750688201655294e+00
-2.469104090328719074e-03,5.937343707456606843e-04,-9.796933004579871707e+00
-3.552510068854524989e-03,-7.510622273686077058e-03,-9.798454204901817732e+00
-4.856679982394969224e-03,1.576086767974818267e-03,-9.790192047411734322e+00
3.817296212585502557e-03,-7.259560594330399103e-03,-9.795627535849257939e+00
-3.495096590658164793e-03,-1.279659472559341316e-03,-9.795741193649647016e+00
9.750219240060023149e-03,-7.087616008546450581e-03,-9.791942769072560893e+00
2.974411884165039082e-03,2.098697824315697090e-04,-9.782422313411350601e+00
-5.359904066203085952e-03,-4.791575124226705486e-03,-9.800750014457252135e+00
5.711949901763838967e-03,3.991116687887881487e-03,-9.784060866217668462e+00
-1.434919223698210775e-04,-5.332916911636524345e-04,-9.799712628210381027e+00
5.966149625312023967e-03,-9.687268982853537561e-05,-9.797801519803268633e+00
7.166549748766513558e-03,5.103518196045547448e-03,-9.792723421115882232e+00
3.807989874181964569e-03,-3.097610638522961275e-03,-9.797824492086034454e+00
1.280581578736278989e-03,1.521252398604402587e-03,-9.799238538899118112e+00
2.482063047866909719e-03,3.911530775286617759e-03,-9.784526132387439290e+00
-6.036646297454116572e-03,9.422615700459381974e-04,-9.801671570091693653e+00
-1.441083775416490253e-03,-2.588322747068230734e-03,-9.797954749531383456e+00
4.528400207606235288e-03,-3.754191277296431515e-04,-9.791991819626231219e+00
7.271363226790338551e-03,5.282121024681811147e-03,-9.796780222351049616e+00
-1.406402869097240528e-03,-3.573940757470232214e-03,-9.791944114315386472e+00
1.994291127849690719e-04,1.366646659563873305e-04,-9.793152448465457738e+00
3.970915606310709421e-04,-3.224943423056723848e-03,-9.799573636227965068e+00
-2.972650651383190626e-04,6.490279967426136436e-03,-9.793172318490004358e+00
-7.518609730218009206e-03,-3.396908105567872718e-03,-9.800928320675302174e+00
-4.618629065907192861e-03,1.341199918141977978e-03,-9.789226945533695101e+00
-9.183965042471035900e-03,5.994981108765619696e-03,-9.794110065004698384e+00
7.936886089808903137e-04,6.308340677885417892e-03,-9.787959642674255889e+00
1.702628367828615090e-03,-1.055602498395868082e-02,-9.795258975370533250e+00
3.388743018412593982e-03,1.673492918475493146e-04,-9.799737198938647253e+00
3.145632359987013925e-03,1.784576060831109638e-03,-9.798176665653809181e+00
5.554320964853500008e-04,4.056404706641992750e-03,-9.802172702819833106e+00
2.683236395696676681e-03,2.471475572919655615e-03,-9.795517614047861699e+00
4.179556741592611174e-03,6.176651617100752242e-04,-9.796666554728464149e+00
-5.346968916898530745e-03,-2.030997058744257386e-03,-9.802956961897011823e+00
-2.403672818272841773e-03,3.683501452014868293e-03,-9.793256484490315827e+00
2.605330689134224397e-03,7.703614698658312748e-03,-9.804285279976687306e+00
5.250248833121146617e-03,-1.147707281952834758e-03,-9.796718306365791662e+00
-1.113122282450984893e-02,6.377309528812329271e-03,-9.792303416597542665e+00
6.949206694588742732e-03,-5.505348564948019108e-03,-9.795596983861887708e+00
-3.182922709813799673e-03,1.103545289286946007e-03,-9.795176274220590784e+00
-6.283351894518084124e-03,1.042790390209814670e-02,-9.799900297036224117e+00
8.989248610662549203e-05,2.841818408313100640e-03,-9.792535459964941680e+00
3.390924308511787211e-04,-3.555576918980367894e-03,-9.795512428900961410e+00
-5.518190850699046870e-03,2.738227916328283087e-04,-9.796393584823338330e+00
2.908950116920910878e-04,-4.222118659791988804e-03,-9.796703193666816745e+00
-3.445236274859184307e-04,4.312185685586221104e-03,-9.799041527442067689e+00
5.488229960908514284e-04,-4.155465111500287849e-03,-9.791911969245202130e+00
-3.388506507734216546e-03,-7.835672085845516582e-03,-9.797925096615401230e+00
-5.380831342767311912e-03,-1.269557672052737830e-03,-9.791832041048920132e+00
-4.716106518653042680e-03,-3.347484335803670857e-03,-9.789501064739603464e+00
-7.218794030757335646e-03,-4.832683147991958042e-03,-9.794470251385401838e+00
4.270130716386450614e-04,4.657398668361296956e-03,-9.796222805306516790e+00
-3.525378582446088774e-03,-2.694832019539529586e-03,-9.797486321948461807e+00
-2.307511964571901889e-03,-6.931476462481980447e-03,-9.790759945491959826e+00
4.178326778253104758e-03,2.815706439079129677e-03,-9.791902627141892523e+00
-1.103909276882838846e-02,8.446790349789147110e-04,-9.793173262683660951e+00
-9.263541626247760383e-03,8.597266152301955255e-06,-9.799298609755695111e+00
2.458012017959048832e-04,2.596337715012633947e-03,-9.799019396022993433e+00
-2.297755247974148009e-03,5.444094371179026767e-04,-9.795141082660697052e+00
8.556602028353411590e-03,2.230808652704710082e-03,-9.792126439834708762e+00
-2.658660071739470023e-03,-2.268741524386728818e-03,-9.789869936784162618e+00
-8.760639251724667773e-03,-4.496649839350086095e-03,-9.798672388474074069e+00
-9.646792161790410450e-03,5.128521604797460845e-03,-9.808519326224734769e+00
-4.795089398369353773e-03,1.742585494669314896e-03,-9.799366161051301205e+00
2.439793903477073967e-03,2.126318442671700382e-03,-9.794247040538598625e+00
3.248011096558075963e-05,-4.558948306293530636e-03,-9.802594588091443129e+00
1.473459097540132318e-03,-2.685110755663146307e-03,-9.802148028458656626e+00
-7.855296215018289091e-03,4.952246458072095438e-03,-9.790751165518052801e+00
-1.980668699817741182e-03,-5.321897288916523430e-03,-9.794195755088184185e+00
-6.324173064139989101e-03,-7.861031236651131945e-03,-9.807882787653632306e+00
3.749717986278524196e-03,6.407360001357133121e-04,-9.800296008362149536e+00
5.800555874087755942e-03,1.177067620673568141e-02,-9.795740880505254822e+00
-7.228681764297671848e-03,-2.715071659381914845e-03,-9.797402096521174997e+00
5.422154770301007218e-03,-2.314949215186819492e-03,-9.784153142050831420e+00
2.050636131446187480e-04,-6.301657596544293569e-03,-9.789536061548062662e+00
-3.507088526553642487e-03,4.014515795791867049e-03,-9.799072880344152026e+00
3.299636232101518015e-03,2.076308890230068715e-03,-9.797343612649054734e+00
5.713434231086118864e-03,-3.757005806978341682e-03,-9.793721605692937260e+00
6.331238027016526486e-03,-5.718335221897303221e-03,-9.798033007390204219e+00
-1.689641156120279031e-05,-5.573699130310596182e-03,-9.782298860476998925e+00
3.727695827190928221e-03,2.976128484144829238e-04,-9.793949531170810019e+00
1.471507884721546611e-03,-1.008911218745121331e-03,-9.798731704888192340e+00
-1.110360012566056039e-04,-1.476981468900326810e-03,-9.794514976457548983e+00
5.639753458230128275e-03,-3.856283260041749265e-03,-9.789900765497289825e+00
9.831627097361702802e-03,-5.260743849654853435e-03,-9.798212671625449843e+00
7.144905772348987723e-03,-4.067767387406031644e-03,-9.795188569573019421e+00
2.611445616938127320e-03,-5.133626495216361482e-03,-9.791305405225847025e+00
-4.689054169389452777e-03,5.080226301072871681e-03,-9.796842325052637079e+00
-2.628330701860331475e-03,3.436542898274230502e-03,-9.790357927012760086e+00
-8.930432324280182868e-04,3.703021119407251798e-03,-9.788927014854017727e+00
-9.273441180145631591e-04,-5.003533751958877222e-03,-9.789567598418690508e+00
-6.673480356458326261e-03,-4.164550549796575823e-03,-9.794735504950631721e+00
2.393953087966801258e-03,4.427060367580776604e-04,-9.801194897281821028e+00
3.966687495412664875e-03,-1.870556369027644812e-03,-9.803959530841241943e+00
9.946072609951905202e-03,1.798140230083418835e-03,-9.784504331581894476e+00
1.530155992948071912e-03,3.715384455847310923e-04,-9.796364086467553633e+00
1.664579143444137876e-03,6.714523699283206880e-03,-9.799634184342595589e+00
1.849535728522839735e-03,5.041771690128221510e-04,-9.795624024778065930e+00
1.609851987486493434e-03,2.011373388994373065e-03,-9.794932120136435216e+00
4.698521843581468342e-03,5.916162322122203677e-04,-9.799082003356078374e+00
3.003199112202252063e-04,1.961085711797071803e-03,-9.784246689498935723e+00
-9.177254218652600506e-03,-6.258988706250185989e-03,-9.793638826559659449e+00
5.852885720158985776e-03,-4.717313296518870977e-03,-9.794810746423472381e+00
-2.689843688985899938e-03,-3.813381365181473404e-03,-9.791595264710016622e+00
-4.401094047203009223e-03,-2.788173370542516068e-03,-9.790997932566472883e+00
4.827112458729969531e-03,-1.149400964416249843e-03,-9.794232168695929275e+00
-2.390230334141885300e-03,2.524779806750001437e-03,-9.796327303601357173e+00
3.198511306233441619e-03,4.704750259704730975e-04,-9.787079479662008197e+00
-5.516966326499439348e-03,-1.651297316631056148e-03,-9.787162624224947649e+00
7.283497561502393081e-03,-6.019020516491726917e-03,-9.799670890232011544e+00
-9.118910420441360366e-04,5.312101405676765246e-03,-9.792990896178523030e+00
4.500400317254018082e-03,-1.741643039987635783e-03,-9.790446539606255882e+00
3.429060605511775103e-03,-3.623890953969852169e-03,-9.790882345174248158e+00
-3.886808586961741641e-03,3.250733621606753925e-03,-9.786706851338472291e+00
-4.023291236193741668e-03,4.582389502841769497e-04,-9.796124711121340312e+00
3.849602702683320530e-03,5.528426955648742779e-03,-9.796880582501685808e+00
2.021173575492227897e-03,2.713368168436515460e-03,-9.800966695165284293e+00
-9.021256323080692474e-03,3.622602214785983210e-03,-9.795685708440535322e+00
6.120385148458947280e-03,4.682560397644414465e-03,-9.789265303407344021e+00
1.081701972921412938e-03,1.722295718672376536e-04,-9.799658462303089124e+00
-5.946842130621309702e-03,2.857783942072244458e-03,-9.794361095850103283e+00
-1.025806752202935990e-02,-1.534961370889129789e-03,-9.786519305200705787e+00
-3.910290058498047845e-03,-2.142030720359622709e-03,-9.791141205185686758e+00
1.457895224352303513e-03,9.938559860325022616e-04,-9.797429636529843222e+00
-6.215195681698534175e-03,1.210223665299141370e-03,-9.796275146283663915e+00
3.597433751914391568e-03,-6.834879452510878896e-03,-9.784506739468664449e+00
1.383100786350005247e-03,5.255070456696799876e-03,-9.790379257752620745e+00
-5.125270649237614537e-03,-1.957110031531196677e-03,-9.803583728126801233e+00
1.770694769586599049e-03,-4.914329294958705296e-03,-9.800316668296209954e+00
6.201613450314440168e-03,-3.084927669964934716e-05,-9.787050446931351289e+00
9.879315926753165912e-05,-2.551903670480045513e-03,-9.791223895276113254e+00
6.025611117940386785e-03,-7.009732508609384932e-03,-9.792878577135596174e+00
-3.719562140944925478e-03,-2.534281226589951436e-03,-9.784305364803927318e+00
-4.681532633186178370e-03,-5.354080370305721627e-03,-9.788320938702739227e+00
-4.585719959829218095e-03,3.044331312210464893e-03,-9.795793220068899743e+00
5.478893422475680612e-03,-2.538791607752131051e-03,-9.796262985012917923e+00
-5.933874584584898290e-03,-3.833876469773352547e-03,-9.802905547596013847e+00
-8.176301639259883278e-03,-9.212024772839888520e-03,-9.792882777226177282e+00
8.086471081689048344e-04,8.528696612086805393e-03,-9.801366187685109921e+00
5.638888618835677900e-03,5.778822984120425207e-05,-9.800201778822994925e+00
9.311269104869959127e-04,8.413167811117967104e-03,-9.800019488073543172e+00
3.955426989731510891e-03,1.027112319985286695e-02,-9.803276630859302898e+00
-4.809856363351620867e-03,-1.641842906068858307e-03,-9.797444552234642501e+00
4.220035382730562973e-03,-3.023518093956528100e-03,-9.795172332251425473e+00
-1.539641538037812667e-03,3.234592476445203495e-04,-9.786542125591083163e+00
4.081693522814681041e-04,-2.344651144324669950e-03,-9.790694781732510066e+00
-7.135134072334149962e-04,-5.153080820843947488e-03,-9.790797353224158783e+00
-3.406254064587887608e-03,-2.080524788002167686e-03,-9.801059349372929219e+00
1.553066117062558947e-02,-3.444938798355519724e-05,-9.797828737440315905e+00
7.633670358014351190e-03,-7.713681487484631664e-03,-9.793190728710465365e+00
-1.906728739100313832e-04,5.452387050957632590e-03,-9.793063853660784801e+00
5.910521095123848212e-03,-6.129787192638701254e-03,-9.787994430784012323e+00
3.468811214250301558e-03,-3.827577398952268007e-04,-9.796090659581947691e+00
-1.333265103856419095e-02,-3.145009051694005889e-04,-9.792929241359907166e+00
-4.508318728933613864e-03,2.913543332335393355e-03,-9.804201294188274574e+00
1.278493938426210862e-02,-9.976258976059262495e-04,-9.803473500116705708e+00
1.049874392120783175e-04,-3.064250650997527286e-03,-9.790304070814476844e+00
-5.937029908509979838e-03,6.040085617507256859e-03,-9.796424162987767303e+00
-4.213213515485086415e-03,-2.284093602217375854e-03,-9.795242669951029768e+00
-3.402671620687078465e-03,5.695360811839367439e-03,-9.797846039075569280e+00
8.397575626763756351e-03,5.440519916188898616e-03,-9.792592450500443135e+00
-1.841640798528311257e-03,-5.897201927139980593e-03,-9.805493662510841091e+00
-2.795389298894845626e-03,-3.429244767627832955e-03,-9.795449619219969151e+00
-7.843605886558037074e-03,1.664827993350526461e-02,-9.791772500866892770e+00
-3.201001668915614932e-03,-5.393120001539124242e-03,-9.787909453175847929e+00
7.454458672437099670e-03,-4.736183126173738704e-03,-9.793167671065951652e+00
5.626878731014490348e-03,-4.388813743498357588e-03,-9.805394640685532792e+00
-1.704421450199256798e-03,5.120590045538193393e-03,-9.795168493578207958e+00
-1.911064452982513991e-03,3.480649292568392412e-03,-9.788545881926120629e+00
-2.174859506476752372e-03,-2.392073262822562094e-03,-9.785911241214494183e+00
8.285032740444660130e-04,2.805572183055812362e-03,-9.794190765323770975e+00
-1.529496475187243918e-03,4.321975591956574506e-03,-9.797128268120678385e+00
-6.384884082878314847e-03,-7.638264293197081709e-03,-9.787459889657036172e+00
-6.572645349329294881e-03,-1.108952251169332149e-03,-9.788422789128947699e+00
-4.917384799890714767e-03,1.255345503831038680e-03,-9.795493576620504683e+00
6.040769461345509191e-03,9.388489570184595581e-03,-9.789258689859400064e+00
-3.601025053180891000e-03,-8.833633044377141525e-04,-9.800265794353464344e+00
-1.520268960933684153e-03,1.021400927240274144e-03,-9.796398522173969781e+00
5.680688688947406863e-04,4.914602455013940762e-05,-9.796815259162453771e+00
-1.255999383318648528e-02,-2.240919735537887612e-03,-9.788942140082575349e+00
-7.158289670018550595e-04,1.763737650639195763e-03,-9.792438326975412721e+00
1.559103820127664400e-03,3.027420067707895998e-03,-9.796744733098659452e+00
-3.055839881454560682e-03,-7.982441701640034110e-03,-9.801075343163931919e+00
3.061230604488423580e-03,3.916698318800041628e-03,-9.795051117141456487e+00
-3.037402392868958963e-03,-8.791567467722095561e-03,-9.793134193734381654e+00
-1.624920098476032417e-03,-3.355221917555588178e-03,-9.791868938928550037e+00
1.569369697240475137e-03,-4.639780952203399061e-03,-9.800663295573086131e+00
-1.056089679382396333e-02,-1.370958743266494117e-04,-9.796793407567376377e+00
1.431077190687389273e-03,4.766367291011682286e-03,-9.793195842202644386e+00
-4.105228183947664221e-03,-5.492244708132457479e-03,-9.796070063870516265e+00
-1.158178314202332020e-02,-1.857824938958978385e-03,-9.795147248015938501e+00
3.001930838702807601e-03,3.133265054231272780e-03,-9.796199636734234772e+00
5.332020636091091073e-03,-3.200662789498320403e-03,-9.798664816463698912e+00
6.045919621209875500e-03,-4.983154446817335791e-03,-9.790918141899078719e+00
-2.264309454012382750e-03,-5.145734191227860702e-03,-9.787370096775770634e+00
-4.405257271640705685e-03,-4.111372179043905860e-03,-9.795248456875443210e+00
-1.114434317785642156e-02,2.472756709495997542e-03,-9.793251438496797689e+00
-1.913045961352314315e-03,-4.337248861449907213e-03,-9.794516498052733056e+00
-1.005045353853485125e-03,-3.809973276704173815e-03,-9.791401894463838573e+00
-4.536850717665735907e-04,-3.734881723770650409e-03,-9.795468150793476880e+00
2.723436045851885851e-04,7.859813999315094432e-03,-9.794108204954177666e+00
2.882756807041133781e-03,8.853687105538123872e-04,-9.787335304485408116e+00
-4.769229133023066241e-04,1.650020076381817193e-03,-9.785078280929731420e+00
1.235126983538715551e-03,3.109302739741612136e-03,-9.789434539246764544e+00
4.122437620929651075e-03,2.712166160663538150e-04,-9.793374456056895383e+00
-1.913311924352983050e-03,-1.155365959534522882e-02,-9.798964156759192079e+00
3.099567550210188729e-03,-7.369584396180519151e-03,-9.799005257217423548e+00
1.749613299053679513e-03,3.150729108665378028e-03,-9.794242642084400430e+00
2.795741214893006517e-04,4.682293069591295098e-03,-9.800639239026523342e+00
2.527874690662159241e-03,2.018978547733018929e-03,-9.789356197035960605e+00
-9.665517806910075421e-03,7.272286557570496052e-03,-9.800293814072485787e+00
1.604615192499595682e-03,6.971798510479080419e-03,-9.800331381058899893e+00
-6.995451115014502015e-04,1.782926213123545069e-03,-9.790240274836010670e+00
4.472378006258888425e-04,1.928715808658044723e-03,-9.787348823023453548e+00
5.822221221119223446e-03,1.821851296504465711e-03,-9.789151338698264482e+00
1.078739778035893958e-03,1.621660651577613507e-03,-9.789344965735178761e+00
2.406353183871316141e-03,-7.935659577512035878e-03,-9.783661795987949716e+00
-1.173458891139917987e-03,-3.034887898416968534e-04,-9.795104260571713795e+00
3.276351538868427140e-03,1.195534855811026045e-03,-9.797340399768780017e+00
3.436886294779810478e-03,5.690547966032365873e-03,-9.802787430507184041e+00
-7.525057581526450184e-03,1.257588920981962156e-04,-9.792421036822421598e+00
4.679788150950076053e-03,-2.793283745135852029e-04,-9.779018488690894628e+00
1.089296212461238721e-03,-3.413512119627551845e-03,-9.798133175161336084e+00
9.950574807050818760e-03,1.036897742666141251e-02,-9.792160351260775997e+00
-1.069119319675494902e-02,2.830678279500540000e-03,-9.803268432407563182e+00
4.637836472653086807e-04,-2.263962854071985015e-03,-9.792458549105720778e+00
3.544141581194307309e-03,5.390752048484519741e-03,-9.797880557212671704e+00
3.934942494318381667e-03,-6.205270613091475734e-03,-9.800848433339663046e+00
8.899716124115521904e-03,1.605214099476726976e-03,-9.798150443981434421e+00
4.648962406008730515e-03,-1.529994541790050339e-03,-9.786592410410719367e+00
6.533776044390387019e-03,1.147521039163076299e-03,-9.790662194910334293e+00
-5.442885498973319865e-03,2.050510831930176404e-03,-9.783846159953553112e+00
-2.257363207058719207e-03,-5.352414831174822328e-03,-9.797892652914367062e+00
4.404086269920998511e-03,-4.857696612893996945e-04,-9.791924026198209674e+00
8.807504759302533029e-03,-4.469205237331696904e-04,-9.792638748919083369e+00
-1.190943046265607744e-03,-2.233348654392453437e-03,-9.800286643432739808e+00
8.134100896376252748e-03,9.125136777453284748e-03,-9.791780284903982334e+00
1.049244658252755863e-03,5.530135077811934889e-04,-9.792608133838397677e+00
-3.825216936858741833e-03,-2.762080842581362411e-03,-9.797768099501155348e+00
6.581574859538223340e-03,-6.959190529834863130e-03,-9.792671088195049833e+00
-5.181043551753301661e-03,-1.988812471089874533e-03,-9.796419239318174377e+00
-7.155994008486255692e-03,-7.753473600847674875e-03,-9.797031287159120083e+00
-2.223683259994107576e-03,9.498202421235658627e-04,-9.803520701166597462e+00
5.983881896749665766e-03,-1.148042258185597410e-03,-9.794726157138077483e+00
-4.799005209094302921e-03,4.335483282557754323e-03,-9.798775487055261024e+00
6.533288136544934156e-03,6.335865494225502090e-03,-9.791715867286207242e+00
-3.636522952332386883e-04,3.501495151052939122e-03,-9.792990438622897642e+00
-3.626905820988685167e-03,-4.594986055003044342e-03,-9.794145753383585173e+00
3.033742082290943453e-03,1.879872781529753987e-03,-9.791351462825517160e+00
-5.720597143158247418e-03,-1.774537655198179858e-03,-9.792578907697221169e+00
-8.771241119770697633e-03,-4.068075255029657104e-04,-9.795592151462615860e+00
7.374988868669024589e-03,-4.484584283142800339e-04,-9.805904779010631955e+00
9.583262738388777582e-03,2.142426352984842537e-03,-9.798793196796381721e+00
3.268947009569811001e-03,-4.397400353939803774e-03,-9.804063213070367766e+00
-5.619567816578240581e-03,4.737276348339406265e-03,-9.786995760810341949e+00
-1.801755655684252706e-03,1.054370064041555699e-03,-9.803763154083251052e+00
-2.048287545395835029e-03,-1.145433117286633133e-04,-9.789740109024302583e+00
1.555520547608137127e-03,2.689660997878787381e-03,-9.792648714040513624e+00
-2.652634031022375275e-03,-1.492297605885394875e-03,-9.801451315160974787e+00
8.420021206842401686e-04,-1.395611059134466581e-03,-9.802251239139884831e+00
5.750186253594214894e-05,6.517691839816625900e-03,-9.803287076267601208e+00
5.843349942654792184e-03,9.053913135495372105e-04,-9.799099813846019913e+00
-9.497698182228885792e-04,6.523432517555913940e-03,-9.794925531611212932e+00
-2.361612987399867077e-03,7.877337429276449338e-03,-9.796180435827647415e+00
2.319453288462100093e-03,8.094380916724954605e-03,-9.797731447629081103e+00
6.786518221627123836e-03,-6.339777839464847027e-03,-9.793888725210551982e+00
3.922110575718643251e-03,-2.505403693050142679e-03,-9.787416377805838508e+00
1.652554408619988195e-04,-5.220626322405926521e-03,-9.803018818889311703e+00
-6.283748683851625091e-03,-5.943120406149608823e-04,-9.786960958311050618e+00
1.719018568475301229e-03,-3.092034349784735913e-03,-9.782281020886850698e+00
1.241401072135069929e-02,-1.033426490503154636e-03,-9.800938742635837642e+00
3.478455947504075613e-04,8.722612216412447888e-04,-9.796190183195019330e+00
-6.053620282351479878e-03,4.623554389320814507e-03,-9.797948728445488698e+00
4.624793631228142111e-03,-1.940668457664681320e-03,-9.789294014285276901e+00
3.534238663030292871e-03,-4.145981933887859378e-03,-9.791481357204093072e+00
3.329513351430272994e-03,8.024029951176972486e-03,-9.792209801932662216e+00
-2.149319559878765541e-03,-1.752484799687476348e-04,-9.786669592812682339e+00
4.721315703657340095e-03,2.435266952252484931e-03,-9.803110457540357814e+00
-8.853705931336490476e-03,-6.947627701285307225e-03,-9.793031596200272304e+00
-3.173821353453915289e-03,6.256467327902696246e-03,-9.800423895624447823e+00
-4.185802702696175305e-03,-4.140827544070586029e-03,-9.797438422755110565e+00
-6.002345907544440065e-04,-6.290479619747361257e-05,-9.808861190582176093e+00
1.407741115904439751e-04,-2.574466730867806027e-03,-9.796875952473300231e+00
-8.783349661580385284e-03,1.626360990980543590e-03,-9.791780709999114762e+00
3.004553134246952615e-03,5.662704265573850195e-04,-9.799243414980818301e+00
1.923326310863272132e-03,-3.830348888910205772e-03,-9.799856328554962914e+00
2.388114036507747121e-04,1.906009488204184719e-03,-9.789649858529118731e+00
4.940375452514011827e-03,7.241704149998670452e-04,-9.796869467783029251e+00
-1.110206575184228021e-03,3.311625793147444756e-03,-9.792136864009306052e+00
-6.250780669443273437e-03,-3.297678633670845030e-03,-9.795782951111025483e+00
-6.820128636658742173e-03,-6.795614753434768953e-04,-9.791828071912297204e+00
8.701702121349371918e-03,8.186673316144229065e-03,-9.788362180852887562e+00
5.037378784839598167e-03,-3.451413716284975741e-03,-9.793968387435164402e+00
-1.613555292016972259e-03,2.659941119748784975e-03,-9.793134309477355970e+00
-7.645426229386985406e-03,-6.858267882345931918e-03,-9.792040906752875529e+00
4.911836648323773293e-03,3.714728954243826792e-03,-9.794764797665273193e+00
3.814386803115505428e-03,3.126749305016520569e-03,-9.796454139899896774e+00
9.547868251009590870e-03,-1.738301433435404794e-03,-9.796321425139062455e+00
-2.942598513999301283e-03,4.352863726291063100e-03,-9.784376691889750788e+00
-9.301060060130119517e-03,-9.321153810992471736e-04,-9.793422541046863827e+00
2.127035611414386778e-03,-1.045266369049894150e-03,-9.802703969821591201e+00
-1.083894410487047481e-02,-7.012076575640806839e-04,-9.795477900357887791e+00
5.756295406116800593e-03,4.042202248556742844e-04,-9.781232980815611100e+00
4.325367148176013227e-03,7.855082948013587547e-04,-9.792207531599331105e+00
-1.294004901256412890e-03,4.515557762607403346e-03,-9.798102665075729689e+00
7.996016627544251694e-04,-9.062245510327157291e-03,-9.787083202336512855e+00
-1.308730182500919244e-03,8.416830340686496520e-03,-9.792821647468795021e+00
-2.087661895137439636e-03,8.297531805304486857e-04,-9.792503438203075561e+00
1.283594503372093671e-03,6.399607243111130050e-03,-9.797231262810512931e+00
1.250206080653202883e-03,7.837488812737750457e-03,-9.795798633910976605e+00
7.641730481759256843e-03,3.770617334115966644e-03,-9.787623147953436131e+00
-4.160891423651023012e-03,-8.909776681326236208e-03,-9.785943290267764993e+00
4.730648079743774576e-03,3.335076843771470415e-03,-9.793775911277078805e+00
6.924345489245539416e-04,-6.755526587194394215e-03,-9.804404743995586813e+00
4.489724255360530089e-03,-5.625461120837508405e-03,-9.801991669169341392e+00
2.250013685377129542e-03,3.613264850099777935e-04,-9.791174007166969062e+00
-7.965831595115093963e-03,2.040349605958130356e-03,-9.795322289193494569e+00
7.018027424303452432e-04,8.659713767171664175e-03,-9.789985801984821379e+00
1.490149297481731814e-03,9.331485703370643236e-04,-9.804648215758708929e+00
5.307304732116700265e-03,4.346166304529283349e-04,-9.797906551328901870e+00
-6.324839507173045383e-03,-3.306864265197697640e-03,-9.793377801398136739e+00
-4.743736651434199252e-03,3.617419642037062594e-03,-9.791636648129575349e+00
-4.991876303760043286e-04,7.343307477466740063e-03,-9.796156807666646316e+00
1.973766533901645179e-03,-3.704324329329101474e-03,-9.794320520227197235e+00
2.920300082664475765e-03,-5.036970259357929219e-03,-9.791683659985706001e+00
2.529948039920452323e-04,7.509031824699972588e-03,-9.805179195335330888e+00
5.662496063946895024e-03,-4.718782901693929950e-03,-9.801868893247212000e+00
4.383073218569069336e-04,4.216359252227088426e-04,-9.792973684777191323e+00
