gyro_x (deg/s),gyro_y (deg/s),gyro_z (deg/s)
6.071515869673783927e-03,-2.646348046292092485e-02,9.510989674460201826e-01
2.061919302428631001e-02,-7.329886654114341335e-04,1.746006828013361600e+00
-1.637512764195215090e-02,1.792856156260243250e-02,2.461998827454947136e+00
5.163521288097951134e-02,-3.744698281655135103e-02,2.986381209138217585e+00
1.875621268853515725e-02,-2.130456766494693427e-03,3.696158880941835534e+00
6.346654673550103376e-02,-6.091790124836508023e-03,4.275698261116080090e+00
-1.317755368000117326e-02,7.747379554018916925e-02,4.684166218482731736e+00
-7.250271699155810042e-04,2.937172283788293606e-02,5.118090839178752738e+00
3.688954863422512498e-02,1.157239222372154121e-03,5.481969386508100506e+00
8.267403406716722358e-02,1.905348126754971170e-03,5.835772160387957541e+00
1.900054387528893936e-03,2.608593826558370122e-03,6.181590428274214233e+00
-3.569485696139038794e-02,-6.891773731797364022e-02,6.435737364966107599e+00
2.600999372809650531e-02,5.890291579349379164e-02,6.686308210008515829e+00
-4.559606149773881567e-02,-8.265864288214512523e-03,6.811457166706738064e+00
-1.084043274066844725e-02,-1.860932670524517371e-02,7.146448891888518062e+00
-1.316277994562378229e-03,7.896452596251810063e-03,7.276402694735195631e+00
6.280256389344018864e-02,-1.242884993019858532e-02,7.479335093715153704e+00
-3.621507829660603611e-02,8.286080614199822433e-03,7.638100941248470832e+00
-4.073489747202947708e-02,-1.955561371554432794e-07,7.839230295860235564e+00
1.453851667731458942e-02,5.143636670405670602e-02,7.835130703634995974e+00
4.208518405646270027e-02,7.387441737475991532e-04,7.956354736321904042e+00
-1.389156830722923681e-02,-9.606747386078312231e-03,8.014772015211118372e+00
1.009230920204602783e-01,1.100341872489477707e-03,8.236396597246804063e+00
3.712171616468649266e-02,1.017850067040474392e-02,8.290475999635518178e+00
-2.464670692735815988e-02,-2.683815877863782867e-02,8.322441891369798839e+00
3.918027914781803400e-02,-7.340312825362244054e-02,8.413409328510521590e+00
-2.189463489362428877e-02,6.478161733352696960e-02,8.475347209723283370e+00
6.232483688615835654e-02,-2.380095109368911624e-02,8.495424902020925373e+00
-1.412445108299791377e-02,-5.959838952264541467e-02,8.624277059219428665e+00
6.151411629206309656e-02,-5.163608214241487832e-02,8.573483994361978944e+00
4.945064668856694046e-02,-2.805193278139273688e-02,8.569819057466741441e+00
1.523654380786413666e-02,-2.619973106162071588e-03,8.750491394262711609e+00
9.595318613089744153e-03,-3.684834758467941951e-02,8.664809894430257842e+00
-6.001025742295142996e-03,1.015382620102284368e-02,8.724934036309527130e+00
-2.607679424426538953e-03,-1.358675201980511296e-02,8.721135694817023776e+00
-1.808857754372439688e-02,2.564905373306387154e-02,8.861497457297106806e+00
-1.792309253774361164e-02,-4.736633080077344571e-03,8.878466567546620780e+00
-9.133802686310553420e-03,-1.781997945694427030e-02,8.885056069685507651e+00
7.277063221702171660e-03,-4.333519258994689843e-02,8.824882817835353777e+00
3.978028612482472498e-02,-3.192862305105084730e-03,8.812213634155481756e+00
1.603983008474869215e-02,-7.335355359042116351e-03,8.874388136358936308e+00
1.594918243978501668e-02,-7.338477691628594174e-03,8.857815260916119371e+00
1.883281873684027399e-02,1.999298451124522768e-03,8.859739354600053574e+00
1.003377842565205541e-02,1.002533401420662752e-02,8.894306505444657063e+00
7.638280886243947743e-02,-1.093849951227205547e-02,8.834450424901147514e+00
-2.687145278326211195e-02,4.438609980779501668e-02,8.930573498807254040e+00
5.977714593881724298e-02,2.357922709596744788e-03,8.891361334051573806e+00
-4.287410732173074085e-02,-1.357011321301478633e-02,8.985930705059693935e+00
2.717166251436725199e-03,2.128823778456339494e-02,8.940872572901785276e+00
3.336400495683301826e-02,2.643333327604027380e-02,8.960159747304880185e+00
-3.603254050153640448e-02,1.181179461792433300e-01,8.948408087306678027e+00
-4.883930487837807172e-02,-1.442355119517434343e-02,9.025018003479194917e+00
2.127667335459342349e-03,2.498981480510994654e-02,8.910611850087850172e+00
-7.525371610300900238e-02,1.321216524122121282e-02,8.969850117776298148e+00
2.486792052834483485e-02,2.497316184436765285e-02,8.953559192054020954e+00
-1.427251032885804537e-02,-1.763690485639022101e-03,8.910597496318567678e+00
1.324416912149196240e-02,2.079141588119284151e-02,8.960678159067715143e+00
1.610461237846019106e-02,-2.456904466113215765e-02,8.947720116870547358e+00
2.942047403651615670e-02,-3.882568585921267190e-02,8.918830040442875529e+00
-2.474573130320776443e-02,-3.231986626291288855e-02,9.037515544107280974e+00
-5.945434584351186325e-02,-1.928652218759404832e-02,9.008134886946942643e+00
-5.925794852037676030e-02,4.532647144633577402e-02,8.973933065232186479e+00
5.172289267457159251e-02,-3.246129211943560300e-02,8.956930929430450661e+00
-2.006843100780625940e-03,-2.068324102124772385e-02,9.003143857927966565e+00
-1.146372442059639778e-02,5.914525744238859246e-03,8.967361275751207117e+00
2.732595019993450808e-02,-4.996416270677970367e-02,9.009274215281120490e+00
-5.781090288560246371e-02,2.994872846884379797e-02,8.988218806530996474e+00
-1.494020509159581234e-02,-1.236147663670937764e-02,8.900077404656766333e+00
-1.428986132281897560e-02,-8.602348937812930030e-02,8.984272413722791839e+00
-1.460346414959902764e-02,5.438910148641513086e-03,8.966405515366238532e+00
-7.859134199663925626e-04,1.411671442379711268e-02,8.977363980718507719e+00
-2.254464181681574766e-02,1.742693295854674460e-02,8.978822661579801689e+00
-9.763203658968423737e-02,4.561781261203259191e-02,9.027287181834145358e+00
-8.777584540322626305e-02,4.806370667791851070e-02,9.043164876326311941e+00
-6.994871342755162869e-02,-7.983935725222025825e-03,9.046991727209714895e+00
-3.981147852600841475e-02,2.579641957380235558e-03,8.975952242718648222e+00
2.148577568650328340e-02,2.023419159983221027e-02,8.988334359965998388e+00
2.344763451110687402e-02,-5.216453014692674917e-02,9.004775357348295373e+00
2.909362110460249340e-02,1.665022283717404461e-02,8.953919201499028091e+00
1.805531981878969253e-02,3.379628373818549525e-02,8.988133216831096561e+00
5.053319495585954779e-02,-8.318350029895203029e-03,9.014089896228028920e+00
3.288498569382307390e-02,-6.885806802837630101e-03,9.092945704568240473e+00
1.234962504011568457e-02,-9.425743648304129446e-03,8.989130302280690543e+00
2.458853671738914920e-02,-1.224335931731039689e-01,9.021709643309721471e+00
2.285468427828936042e-02,2.122015925220482185e-02,8.985633010027084921e+00
3.446545046944970991e-02,-9.769764945899254982e-03,9.015173696002614534e+00
4.361431878499046066e-02,8.289058852674879851e-02,9.061520811716542667e+00
-3.128571897856829986e-02,1.780442821540529491e-02,9.028586328292547591e+00
2.448256183132327402e-02,-5.713743648581784407e-02,8.977037013334022930e+00
-1.995817608429139439e-02,-6.140726444921366239e-02,9.035000855903854600e+00
-1.562979373893068000e-02,-6.698978653489809365e-02,9.001331836278625431e+00
-3.354566582167843591e-02,5.830488256296299104e-02,9.069316285508225661e+00
5.052747360148070188e-02,-1.599768817141017721e-02,8.988314079963407366e+00
-2.149201288291470793e-02,-2.418313540477426762e-03,9.048900382517594210e+00
5.849482728605325671e-02,-1.259502984345368601e-02,8.973360386270190503e+00
-7.444835113551795391e-02,-7.288835777870130523e-04,9.012246887802742634e+00
-8.892699058162725767e-02,2.115874551392770558e-02,8.986182048292434388e+00
-2.828911292601034300e-02,-3.011110512668823541e-02,8.997121276241069054e+00
7.963713239543990241e-02,-4.890577875058781804e-02,8.970285334967355695e+00
3.195480608085638635e-02,2.957986230591078472e-02,9.067653472789178437e+00
6.042649417476646939e-02,2.079878322596433182e-02,9.038098012883322596e+00
-1.742780380927249576e-03,1.082400880077833000e-01,8.931384999455312723e+00
4.434272581156724347e-02,-1.105162170923735254e-01,9.008831162631414813e+00
-2.195445588596800935e-03,3.149592219633570028e-02,9.013932006215318538e+00
-5.682621736246386453e-03,-2.756900194157659717e-02,9.034157676226689304e+00
-2.977268275393114491e-02,1.443554561788721290e-02,9.010734063450133391e+00
1.997473483663483179e-02,-1.821706385760068700e-02,8.945506922314063303e+00
5.472942313470537112e-02,3.695423570276419600e-02,8.990552839083767012e+00
4.022684266575813489e-02,1.881507239700899790e-04,8.959431583107328123e+00
1.511152685502984393e-02,6.660576497656578443e-02,9.073342380688746545e+00
-2.032178835409760229e-02,-1.193583910574736243e-02,8.997601486666084725e+00
-2.121115144063753137e-04,-4.870817509442373211e-02,8.987629763806024741e+00
3.293938565500317134e-02,-2.092477257857095624e-02,8.999829734542133863e+00
4.282396283726626340e-02,3.853586367106059951e-02,9.094384598149398258e+00
9.428950049541169609e-02,3.014442067930128699e-02,8.981127276204905030e+00
5.591310427995350996e-02,-6.217207070879920278e-02,8.935295871164491643e+00
-2.931392825289016318e-02,3.520254862753548208e-02,8.989979897887140581e+00
4.163422519909550784e-02,-5.262777883055722028e-02,9.016715185828939383e+00
1.271108132588506801e-02,4.274346240445541650e-02,8.888483721934930415e+00
1.113298497954240060e-02,-2.572469826232214388e-02,9.002053966705368282e+00
1.214171303458715448e-02,-2.682413322961726618e-02,8.906301212790499022e+00
1.473966237058040247e-03,4.682166338955114082e-02,8.981951271606398279e+00
-2.358331601065531691e-02,1.863177802311818954e-02,8.980387200115814039e+00
1.987400858982254354e-02,1.234414970603361222e-02,9.026482148046540033e+00
-2.210205226528553016e-02,-3.361291658351247841e-03,9.023609512739822591e+00
2.588146725750111593e-02,-3.330501732392801822e-03,9.069689494442142674e+00
4.732648882593593065e-02,1.085525068012938195e-02,9.003377070767648149e+00
5.163438061686922292e-02,-2.523880881679897367e-02,9.013632868803592046e+00
-1.092130522757499139e-01,7.507451689125098566e-05,9.023130113341656156e+00
2.358265061022104397e-02,-4.266745543365765315e-03,9.013985267651419164e+00
-2.183189911781606776e-02,4.273733863736958044e-02,9.008803729242616853e+00
-3.637688575289384912e-02,-2.039244146430907716e-03,9.054893617830346741e+00
-8.704296308486063338e-02,1.546610196673942408e-02,8.989109170580452002e+00
4.307766414953961842e-02,1.749660910413508227e-02,8.928516473552711830e+00
2.661071244015171533e-02,4.756759533870106443e-02,9.059867016591640621e+00
1.416000277074893482e-02,-3.675245422938688833e-02,8.947756773813775766e+00
4.268020758910764240e-02,8.123160578056080883e-02,9.007595054295727266e+00
-9.783772681545604283e-03,2.692745504341289078e-02,8.999881525713663066e+00
7.005857008770361924e-03,-3.853481139296807342e-03,9.011014096944460761e+00
1.656632267962759517e-02,4.764202501304811831e-04,8.946993693919425894e+00
-1.636555787191323191e-02,-8.727916416070639893e-02,8.978586202695032270e+00
1.114052283562960849e-01,-8.900458869632905945e-02,8.991725758899784537e+00
6.209593637336463523e-02,7.685566428148625506e-02,9.007695440054316549e+00
4.628402828272504960e-02,1.222338521368617273e-02,8.993720762304574734e+00
-4.140286600443371379e-02,-8.102932416453840353e-03,9.136371580078685994e+00
3.267227065197323560e-02,1.571665411739524981e-02,9.016367682968709829e+00
5.091147138193326000e-04,3.200591846339487234e-02,8.894814242221393386e+00
5.874281585671525807e-02,-6.218401330582507686e-02,9.015420806538051224e+00
-4.531062566102488087e-02,3.531226512839275022e-02,9.020982723142919824e+00
-4.285106191252797958e-02,-1.378377869665067985e-02,8.985885844465322236e+00
-7.091414778655333317e-02,-3.293139713125554230e-02,8.976750532840181762e+00
8.540459329265673305e-02,5.613906696087127973e-02,8.968544598542301571e+00
4.898930264570145604e-02,-5.557126460655496814e-02,9.012660160476819726e+00
1.638613271347420580e-03,1.576467592887115937e-02,8.948705039922561610e+00
5.527499305876077546e-02,4.076487337023145668e-02,8.936460473261663040e+00
4.054809035599699768e-02,-1.051055840312755535e-01,9.004942451869906606e+00
4.281264012653749479e-02,1.049360266591933648e-02,9.051521008867361218e+00
-1.379816520606271923e-04,7.848644092243541037e-02,8.993035540034600928e+00
-3.845515223422828893e-02,3.574700758806906298e-02,8.977102734077631041e+00
-2.510271441089900052e-02,4.924128767083255087e-02,8.943890179142247376e+00
-5.625829389106982992e-02,2.017781397917888311e-02,8.909253362548367861e+00
-3.380298405182152483e-03,-3.721542708790689870e-04,8.968464669554849777e+00
-1.790884641783807921e-02,4.486552402300531678e-02,9.084756088527480955e+00
3.075930615586976950e-03,2.431285462933947816e-02,8.992964210534168501e+00
5.696672485613730325e-02,-5.895825503430961179e-02,9.019934577227648020e+00
3.682967720246504290e-02,1.308044519824092151e-02,9.035681408666047076e+00
2.912550266626223131e-03,-4.290744967730207582e-02,9.102596597105002019e+00
3.438574259674834210e-02,-7.922516710266648554e-02,9.057049524877315960e+00
-6.049466528071759802e-02,8.081191512690921730e-02,8.949350390873451744e+00
8.028409249444052459e-03,2.091735003936931805e-02,8.981497667183448996e+00
-3.211047289073951788e-02,9.066676696817060899e-02,9.021501773919530009e+00
8.927181229602761114e-02,5.481493492797768347e-02,9.016272840813453371e+00
-7.403564036272305970e-02,-1.278677127630573757e-02,8.981789941848852266e+00
6.410024161800231823e-02,5.411916749055024206e-02,8.984028586856982912e+00
-3.759796739343261585e-02,6.254887009532583697e-02,8.953960255522321887e+00
-9.477218784282498421e-02,-1.506242215764925022e-02,9.082752185625553309e+00
5.539531820315015016e-03,2.526110264272763556e-02,9.040687066210132627e+00
-1.898673218617135533e-02,9.074690124696605312e-03,9.043352246593849841e+00
5.883618118559527654e-02,-2.785428261741590070e-02,9.046999745239858726e+00
1.461506619905382671e-03,1.083343966670077124e-02,9.026874623204916404e+00
-1.335176494501289120e-02,-3.617855949475585337e-02,8.993536695331238562e+00
-3.243580638352420997e-02,1.004445830623304503e-01,8.987750534505515532e+00
2.926242389474568387e-03,-3.903029605908399369e-02,9.029548563572936004e+00
-1.247134532945037714e-03,6.619377176826003739e-02,8.991171416310196562e+00
7.606543221736324079e-02,-2.852091879774915073e-02,8.947939174891843095e+00
3.733414542648782336e-02,-3.295801916939831988e-02,9.040848315066515539e+00
2.508112540445836189e-02,1.569240713110212418e-02,9.042136060912094209e+00
2.323127456657545289e-02,-1.466577179144193995e-03,9.002106135931851938e+00
9.249462931372574512e-03,-1.605848254066574721e-02,9.000235280056777754e+00
-3.121150728268605196e-03,-5.765467640699731278e-02,9.033322127115296141e+00
4.605189183727528834e-02,6.981912568336710867e-02,8.985831145793817143e+00
7.754809451013843988e-03,-2.844713634310137851e-02,8.990932888304673298e+00
3.476423207193098108e-02,8.541554348383514905e-02,8.959732041318464013e+00
-3.791926073133687625e-02,1.961152031904821961e-03,9.033659940183616399e+00
2.900173077705922239e-02,-8.785296192849014266e-03,9.019606891787981695e+00
1.463593243901141656e-02,-4.568279387936794583e-02,8.924327035180859014e+00
1.877580078828090110e-02,2.079029508970028223e-02,9.036369721723428228e+00
-5.004513013784842555e-03,-6.774087116208643566e-02,8.855639805213735727e+00
-3.638652205430429470e-02,4.829235985496996980e-02,8.915941102627840564e+00
-1.992445478669334011e-02,-5.322935675255386322e-03,9.040971420305989881e+00
-2.801755494650847236e-02,7.234714492330852897e-02,8.994814091784109067e+00
-3.268516915653509741e-02,-6.356901725942860903e-02,8.988766576679754650e+00
1.890520168847225138e-02,-2.514765450687052317e-02,9.026440849850526860e+00
-1.769754674121790453e-02,4.425943288153982857e-02,9.020978981327122170e+00
1.629774811221781222e-02,5.371854656954431519e-03,9.032533812028770370e+00
-2.052643137491737962e-02,6.221361388025187927e-02,9.068840456089178659e+00
-2.427262489592695374e-02,-4.886305353164843712e-02,9.056922757976533234e+00
1.142057299424884161e-02,-5.115834627436328941e-02,9.040623005939373513e+00
1.256962350841006994e-03,4.318770377876592417e-03,8.981951799865814934e+00
-7.070324780997927494e-02,3.331946433074744595e-03,9.002739060300298135e+00
-1.270415424888772515e-02,2.360877314443172309e-02,9.014724184893921688e+00
-1.183122732507411665e-02,-4.202416763330674848e-02,9.001256020854484063e+00
5.842066863426422646e-02,-4.583753069343676767e-02,9.026631338293904960e+00
1.276071253147315239e-02,-2.330177131129220272e-02,8.975852957574401714e+00
7.150186179550065135e-02,2.295555990223337173e-02,9.025915549615534772e+00
-1.821264447441179116e-02,-1.959121634800389204e-03,8.975732943841054023e+00
-2.581318604258267535e-02,-1.702646957719996731e-02,9.020938816919015224e+00
4.979494400495090151e-02,-4.051871722489049088e-02,9.072365371082861785e+00
2.988528017294763556e-02,-1.434768744648942489e-02,8.961405668732419727e+00
1.686198825847680903e-03,1.656518034734147035e-02,8.985439605086575909e+00
1.785239357671205424e-02,-4.885569060676258485e-02,8.987646989606595582e+00
6.089045023446355148e-02,-5.323284735776396409e-02,8.993518744797828646e+00
1.253307134066063318e-03,-2.158501288003163848e-02,9.022953919016364566e+00
2.466124742922066321e-02,1.203430629349543923e-01,9.030251616195647202e+00
-9.341654262106690101e-03,-1.553524125660398977e-02,8.907800323755951766e+00
-5.565785231235076402e-02,-2.403442133823769852e-02,8.970351337114353285e+00
1.003676390614625519e-01,1.616579038418294173e-02,9.039358542798538565e+00
4.340109863698229237e-02,-2.870582121044426907e-02,9.022885249863787038e+00
-9.423459012617177444e-02,-5.774819631312675533e-02,8.980202315816537606e+00
4.237670166514778333e-03,4.790182554682003574e-02,8.982330950815496706e+00
-2.557610349229334085e-02,5.894608778379020059e-03,8.998019393619610895e+00
-7.170377611830091279e-03,-2.564991213620024593e-02,9.022275290704753203e+00
1.600610216904994887e-02,5.109945068069795746e-03,9.031468859357879353e+00
2.790407339265867787e-02,-1.048191547805471802e-01,9.027883087003624851e+00
-6.560105221946450904e-03,-1.149141941989581354e-02,8.966594471677682421e+00
1.050177841967222907e-02,3.297375997531157288e-02,8.985457554334765007e+00
-1.521028352025351194e-02,-2.222386085458712482e-02,9.051766455343750906e+00
-1.795597578172123537e-02,-6.145845596573760311e-02,9.104217368328734850e+00
2.699491902872712401e-03,-1.010073217363260598e-02,8.988030457197409007e+00
-1.124161141186617516e-02,-2.647611628180493448e-02,9.029932075556473592e+00
6.888724175066306132e-02,5.838561593657901755e-02,9.102421744555226013e+00
2.963342867938727285e-03,-5.978911102178666170e-02,9.032416953097220258e+00
1.952850733673316172e-04,7.783342360561296483e-03,9.032186800714100627e+00
4.340480796266043412e-02,-1.353451700188438959e-02,9.034512736903213437e+00
5.946364693825664099e-02,4.311546564765371382e-04,9.060493051661275388e+00
4.045308759027227419e-02,3.707069928598000219e-02,9.056644858364551354e+00
-1.418338937534805236e-02,-2.512751928558056708e-02,8.957050206279275173e+00
-6.863224302975015623e-02,-6.468841315873398098e-03,8.975560274467056843e+00
-1.271922638170476690e-02,-8.698849115650851560e-03,8.875691179765917482e+00
4.960652588368589383e-03,9.074608234074389712e-02,9.022966004102000781e+00
1.569247657579788888e-02,-5.829493748421324395e-02,8.990076085594013833e+00
6.171292777843473756e-03,5.101545786922140335e-02,8.979951122609092451e+00
-2.523527303631004776e-02,-1.994426130384524196e-02,8.960319294184408534e+00
-2.776170048496059625e-02,2.078128533483207530e-02,8.963521933181016976e+00
4.735838554026199076e-02,1.845574575164699721e-02,9.021078676066782265e+00
2.571814465906150857e-02,3.345472015926199277e-02,8.995684240866502535e+00
-3.930784696912740378e-02,7.239991867793686177e-03,8.969827873757852288e+00
2.057815539880023317e-02,2.468835815832743329e-03,9.039203094868966559e+00
-6.562454101071818133e-03,5.604346215842370693e-02,8.989985022850200735e+00
1.083085425371089483e-01,4.347711778780133374e-02,8.893961191729802707e+00
3.215783114355100225e-02,1.921433694656678876e-02,9.028550891293884106e+00
3.166281938665641005e-02,4.296836579239552562e-02,9.016004739021592940e+00
3.124214522200818162e-02,5.943982114998695027e-02,9.011546273097955861e+00
8.874368048262171182e-02,-7.249092788986158040e-03,9.023737225534098627e+00
-3.389246341797175904e-02,-3.883073969268675124e-02,9.050509330281393261e+00
-4.136106024594268793e-02,1.480600272449569300e-02,9.009335051430618080e+00
-1.766290098812861933e-02,-7.983209914469413179e-03,8.978401519134752817e+00
-2.667555433860857236e-02,-4.892208150262572497e-02,8.939468477434170168e+00
1.067778397943811713e-02,4.002396851052667653e-02,8.931605277387260955e+00
-5.597831225918493275e-02,-3.056826569086859569e-02,8.993831346077747924e+00
-1.262704782419571403e-02,-6.147982655830337706e-02,9.046005683227754446e+00
7.386726235078842906e-02,3.020838100430574963e-02,9.094798120131102337e+00
2.469074685336880223e-02,1.768271935807053672e-03,9.016658611615252283e+00
3.009965239126891068e-02,4.399524498075278039e-02,8.966139440895375401e+00
1.230731872801672094e-02,-2.257896367894107401e-02,9.043816289763446647e+00
2.324094707192623111e-03,4.849490987255725659e-03,9.026967208580103375e+00
2.027872941324394742e-03,-2.181714474043985538e-02,8.992407235437406499e+00
2.956797260643121220e-02,-2.534954575389636311e-02,9.009609224050763032e+00
7.109025038256854001e-02,-2.735032130723225388e-02,8.961870221070519449e+00
-3.361191896140818675e-02,4.667315872690868533e-02,9.075899370519003639e+00
9.710379259418108408e-03,3.985693588105046481e-02,8.999931335636624397e+00
-5.108668041168476504e-02,-4.311888891899504084e-02,8.969994383560107920e+00
4.188309910933772640e-02,5.908110249875400677e-02,8.960312561882512128e+00
-3.404410943818616218e-03,-3.047175661371548036e-02,8.932294460382189882e+00
1.110600239876569778e-03,-1.216217367308600542e-03,8.980542620632439466e+00
1.352536473232321575e-02,1.246398422092129948e-02,8.995259960322119497e+00
2.130924536594130253e-02,6.881408566069827093e-02,8.957712066838125153e+00
7.788341925690549228e-02,3.925162449732076675e-02,9.010279348101390084e+00
-5.284385669992499451e-02,3.796248447288742400e-03,9.043322141068665942e+00
1.133248660802619115e-02,-3.213039458916426994e-03,8.967026345898199580e+00
6.817391722707151491e-02,-3.200392434835132999e-02,8.993970038930314104e+00
3.728988995956335206e-02,-1.075595549789840934e-02,9.013495702667242426e+00
-3.740395589154262013e-02,-3.054914193306497439e-02,9.005845273922952643e+00
7.595793320051097419e-02,-1.209773046088549742e-02,8.938860081654157241e+00
-2.751119211853614646e-02,-6.806315478509261663e-02,9.011607463836917020e+00
-2.939251826806629081e-02,5.298557233664095978e-02,9.037120294873140836e+00
-2.503621409005212222e-03,-4.357828624823773672e-02,9.035729351311848845e+00
5.818658006027158103e-02,5.741511956408007185e-04,8.942150444081121918e+00
-1.489786955248705545e-02,3.956822571097950297e-02,9.043259275578794387e+00
-3.456918282731458875e-02,7.345197867587631435e-02,8.998054295023454330e+00
4.630297249142897864e-02,-2.044190037108383623e-02,9.038722867696739272e+00
-1.515157928731730545e-02,3.194506718615957447e-02,8.999743814073990933e+00
1.445203889513874650e-02,-2.498532002020921114e-02,9.121060172580477854e+00
-6.456739037598783863e-03,5.165934057470565263e-03,8.955849753046631889e+00
-7.570257093719340302e-02,9.336366265948936594e-02,8.992957828936882336e+00
2.312507210078795609e-03,-4.356185222936825169e-02,8.959452965853566653e+00
-2.906533392241847022e-02,2.468952274750195203e-03,9.004366844963341165e+00
-7.798890380667741762e-02,3.760764914214858451e-02,9.026299273173069793e+00
-3.598877004614883801e-02,-3.693085927209573127e-02,8.921067792636860005e+00
-1.103281665545403217e-02,7.602923858727796136e-02,9.022397172699598400e+00
8.077933716652756918e-03,1.307754070641245214e-01,8.953936506339958967e+00
3.301590179972089395e-02,-5.101027826246925384e-02,8.966766868683279768e+00
2.926621275331061506e-02,-2.539936206454580098e-02,8.937862738888329162e+00
3.346657733875412627e-02,-4.813505790841831472e-02,8.920437405083717408e+00
2.024014801140374895e-02,2.894113296944452601e-02,9.033392521994958457e+00
8.803881451566411553e-02,4.327401890891627301e-02,9.051310795685845179e+00
2.449819112736227947e-02,-2.130490672885894041e-02,8.984270205746263116e+00
2.290689819515548745e-02,8.082135699562882289e-03,8.980818535112817358e+00
-3.706991881637863168e-02,-8.023557190016208929e-02,8.982016677084709855e+00
3.042511950926016229e-02,-5.618418492238069772e-02,8.985825293946005488e+00
-4.736986448088222057e-02,-4.658063543022002845e-03,8.984667516770432627e+00
-4.056577924692791881e-02,-1.715949213400631834e-02,8.979704228088698059e+00
-7.694948713512585019e-03,-1.444478710302774666e-02,8.990598650546097304e+00
-1.494839861661757460e-02,-1.581621889763923719e-02,8.994332792031180190e+00
7.887373721433875440e-02,-1.950692235576827758e-03,8.969422355305212591e+00
-2.821779795316323169e-02,-1.111220894672280829e-01,8.983971364270409765e+00
-3.269749203380946379e-02,-1.875939847089185767e-03,9.025707779951881449e+00
1.575957665618770570e-02,-1.034563873902929511e-02,8.967982375660252359e+00
-5.699068138489824659e-02,3.626764797476098728e-02,8.931253864168784418e+00
-1.083790328431018550e-03,1.711704759459566766e-02,9.027030791456716941e+00
-2.674582462504629735e-02,2.923871697820719720e-02,8.989538694011045550e+00
-9.113929940986755310e-03,-1.943374187188808694e-02,9.015038155501697403e+00
-7.488922282599171087e-02,7.102853991438881631e-02,8.923107255334748800e+00
-1.151642443399406197e-02,-2.057710372998578646e-02,8.990287089423354416e+00
6.836255544580736691e-03,2.101667063534707822e-02,9.046140839231386011e+00
1.744914704985597517e-02,5.313722308172361825e-02,9.035846944973933148e+00
7.962959668584244921e-02,2.852737048826297153e-02,9.018436902084127738e+00
3.661658152654501119e-02,-2.396921494034767383e-02,8.961829792238367176e+00
-9.742347923604054161e-02,4.766241708996674098e-02,8.975059543192598355e+00
3.343664285149146320e-02,-3.087421095508360684e-03,9.085720217367235563e+00
-2.019287598031600794e-02,2.819559212254270017e-02,9.043619609639192092e+00
-3.566727320192208950e-02,1.050476070576525194e-02,8.972821170568996862e+00
6.444922933195665338e-02,-4.596852929604316323e-02,9.010828807968586318e+00
-1.037852720096664070e-03,-7.456930486439398986e-02,8.864242314475687223e+00
-3.101978492204908108e-02,7.596555101919706676e-02,8.962906739789891830e+00
-2.674899099869029392e-02,1.467922534798908607e-02,9.008497474485261947e+00
-5.217912375021468204e-04,-5.907113623650982713e-03,8.921961304899683753e+00
2.910674072678114122e-02,-3.896526214237600039e-02,9.050576374139938096e+00
-5.080591743630133439e-02,8.473280105568109510e-02,9.024483056862999675e+00
-8.299495178874527479e-02,6.665967194391335393e-02,9.065295787243492498e+00
3.748556589358444102e-02,-5.985018343081269232e-02,8.966693226413992690e+00
-3.005697780148795795e-02,4.927376833000601808e-02,8.995433491376136459e+00
-3.761080478566510010e-02,-4.306645318664726989e-03,8.941758919549972262e+00
-2.331657888766685768e-02,-2.544001523562134867e-02,8.959805354166997304e+00
-1.866962922175917014e-03,3.070852571097207502e-03,9.038930751315557899e+00
-3.536155215937876461e-02,1.892228562719448087e-02,8.982152318284791548e+00
5.136586897029152277e-02,1.671998522784082924e-02,8.936859801341634935e+00
-2.645783922847602665e-02,8.686993144507890174e-02,8.994444686838358294e+00
2.320111708221218871e-02,9.578181245707549640e-02,9.058410392481901496e+00
2.683191746904786679e-02,3.884496887051991365e-02,8.940782185343566724e+00
8.228223823741570575e-02,2.150203669924034486e-02,8.987046015052150949e+00
-1.851942000961604926e-02,1.171355428685738782e-02,9.041121798933186682e+00
2.772143474814582620e-02,-5.403124497049378687e-03,8.990691430073074031e+00
1.630359944000062122e-02,2.345378971462687423e-02,9.013021494403753664e+00
1.419188106582579267e-02,-1.842477093581160533e-02,8.960481843659895418e+00
-2.331565717746115693e-02,3.029955461454619109e-02,8.944687072000718331e+00
-7.011865516044488156e-02,-6.537345700809881442e-03,8.913313043265599589e+00
5.399550694111424076e-02,-2.552931392433640742e-02,9.028403090032469436e+00
-5.689290277218313902e-02,-2.342115525642484916e-02,9.050085057025519575e+00
-1.679694509079455653e-02,7.066453739903799658e-02,9.001706319796351607e+00
1.391434119535435616e-02,4.056365369844207487e-03,9.035691281651963891e+00
1.619227058931367591e-02,3.773541059298426287e-02,8.917638338309963331e+00
2.032621773460997761e-02,8.021684991430752878e-03,9.033374756981844556e+00
-9.495332222241950615e-02,-1.211007314193836108e-02,8.965814606514920015e+00
-2.065050881239787958e-02,-8.174759793008461173e-02,8.987256512326373681e+00
4.282951938174807405e-02,-1.494396972131925051e-02,8.967283568241187552e+00
1.367751741028625997e-02,-4.326746538689919819e-02,8.962638866843086305e+00
-2.888684146587870705e-02,3.520197036566277693e-02,9.028324540303989565e+00
1.439813432857487384e-02,6.057447376564255304e-02,8.938167565445510832e+00
-3.171641786173782368e-02,5.609224956579998006e-02,8.950638009859947175e+00
-2.264601225121015693e-02,1.941489508827446211e-02,9.022464731208302169e+00
5.390404621014359410e-02,-1.105517260911752092e-01,9.016889207360643255e+00
-1.758254063056797004e-02,-1.650922899585325482e-02,8.980081349442667005e+00
-5.888681540298951189e-03,6.848110314517256124e-03,8.946666872589254638e+00
3.551783301297913031e-02,-1.518186368963230122e-02,8.918758320983382504e+00
3.711164336427797555e-02,-3.233141130133120739e-02,9.005776411674661475e+00
2.172163851835749379e-02,-7.806723268238549562e-02,8.950746273627158800e+00
6.978157438092545684e-02,6.052239384913443189e-03,9.040949063036249456e+00
4.710045270428323688e-02,-1.140491039724050686e-02,8.979239963186795848e+00
2.288073600635251448e-02,5.572512250144249883e-03,8.968799994112073293e+00
-3.011859625320916292e-02,4.686470003647088406e-02,9.000254514628327485e+00
-7.361468781070798668e-03,2.103618079109171105e-02,8.953539635667095098e+00
2.658161821230897726e-02,8.437446982036936327e-02,9.016494439935982541e+00
-2.095576486057119936e-02,7.096572450697835599e-02,8.958382217163840977e+00
-4.293274879953539423e-04,-4.708995209747968841e-02,8.994124764297085406e+00
7.076286981868717962e-02,-5.354628274728336773e-02,8.978261746045198777e+00
1.433253912676172789e-02,2.525312324488699842e-02,8.994566674391512251e+00
5.141369509509642610e-02,-7.056989169927989705e-03,8.968156463066693007e+00
-2.848621052263395140e-02,4.912856262772229143e-02,8.945747813612692667e+00
-2.421528206035290440e-02,4.987410467503555767e-02,8.939194760629618486e+00
-6.630971880567920924e-03,7.805419403558411240e-02,9.004815685657119317e+00
-8.276095875887540254e-02,9.909410453158021270e-02,8.964249590610497975e+00
-8.693967651399012349e-04,-7.268456762610694954e-02,9.062296679641761443e+00
3.409586969581642618e-02,-2.724243017210866563e-02,9.009267774483623370e+00
-3.142722423318547453e-02,-3.814995576112986675e-02,9.012629615125183236e+00
1.301454010862192374e-02,2.882103711632483245e-02,8.996163433932913733e+00
-3.441948845854211209e-02,3.806309645769348493e-02,9.028418145275169948e+00
9.449231530786582345e-02,5.307917939506521382e-02,8.982773743546426104e+00
-2.892863150053993915e-02,3.358304531923136244e-02,9.006031325265054122e+00
-2.583304531132083956e-02,-8.561553887587664349e-03,8.985786956144462323e+00
5.693088531061188395e-02,4.060418719914477004e-02,9.002934737831896683e+00
4.046604868434156704e-03,6.547181892192485697e-02,9.013192562506107564e+00
-1.004101608380598282e-02,-5.062766053470849070e-02,8.969219993922941114e+00
-4.445400729205650769e-02,-2.982875429780975848e-02,8.934183901008577067e+00
2.643825133779989164e-02,-1.221299520463809893e-02,8.947120404851105491e+00
-1.215332066500923909e-02,1.278459817794286996e-02,8.984932576340998622e+00
7.507916721970636642e-02,2.607475351961998158e-02,8.966038920716389526e+00
-4.914931667676965266e-02,1.098826280080273700e-02,8.962586543583189069e+00
-3.877817137042037510e-02,-4.488491014941228818e-02,9.009315677515552068e+00
6.391292935748520143e-02,5.801551725984808311e-02,8.961950321614468251e+00
-2.030744861646028437e-02,-4.473223219154352087e-02,8.958511337128150842e+00
-4.555167532578267668e-04,9.022329732592038187e-03,9.034548466590546667e+00
3.012191886248742623e-02,-5.784925389462737891e-03,9.013632335280625796e+00
-5.815130346656974952e-02,3.777769168052552001e-02,9.051711115935864527e+00
1.618715132722121572e-02,-9.244534413651578700e-03,9.027655132889940148e+00
-8.123182758566090123e-02,-1.311251050098170660e-02,8.961970647476888985e+00
6.884906248602956635e-02,1.676539642497931054e-02,8.986392436132176087e+00
6.777865307790666149e-02,6.483201318858405893e-02,8.994439328123128519e+00
-7.867689009763241537e-02,-6.119070887165529299e-02,8.965775055805528027e+00
-8.401792263629342256e-03,4.781745238991251534e-02,8.988335499296542963e+00
6.090251109970849092e-02,-5.520488733640299683e-02,9.002775853554238594e+00
-2.224585620149308052e-02,8.363062318679459484e-02,9.008921666362869729e+00
6.242990483616155106e-02,-1.213479322404044207e-02,8.968202853280212494e+00
-9.742616402899166583e-02,4.799348900951247790e-03,9.022989060943226391e+00
-5.618492822428581418e-02,4.348769998467865577e-02,8.952506514915192781e+00
6.707520158448045111e-02,6.971903501229452689e-03,9.019153838509197385e+00
1.974307441764558066e-02,-2.366586862482989492e-03,8.990530392782742908e+00
9.841512828471792214e-04,-3.162781407036693859e-02,8.992570855366286864e+00
-7.803917485668818155e-02,2.163756188935129365e-05,9.045549414880634131e+00
3.470457797541412481e-02,1.142345167911898614e-02,8.966434061548184786e+00
-4.006921423190840797e-02,-3.652786477840241214e-02,8.986822872403543272e+00
3.239096407909122094e-02,-1.434076836194263758e-02,9.094903882086194713e+00
9.705276504816937044e-03,5.909313958390691873e-02,8.922231009317648898e+00
-3.121361531437270073e-03,-2.162908974212625346e-03,8.977664086907330088e+00
-4.961476661324594473e-02,7.971110621312602930e-04,8.947844986524104982e+00
6.536675682919793062e-02,3.109573260479908934e-03,9.018436824020383824e+00
8.617177169216184984e-02,1.389229464755557461e-02,9.029901886232124752e+00
2.941699478989416583e-02,5.826386161002052033e-02,8.897088076043162985e+00
5.095335355312763902e-03,-5.470898525868113024e-03,8.958150065174518062e+00
3.130270110020354907e-02,-3.113329766437851476e-02,9.010643926549127158e+00
-2.081946970179819265e-02,-1.148807783729533481e-02,8.983624979197871951e+00
-4.108512764500901748e-02,1.606949237908241249e-02,8.932452344482502582e+00
-1.283054039369988138e-02,1.318194565263302621e-02,9.016506556318910626e+00
-7.835630776367342055e-04,-4.933326776297891451e-03,9.048976794292958203e+00
4.784290706593805238e-03,5.131286082081368272e-02,9.023725790241652334e+00
1.415905463521306001e-02,-5.603264653672343498e-02,8.986822935208625296e+00
1.928018486198869105e-02,3.357777127820357754e-02,9.030159647739605333e+00
4.369640686236193894e-03,-3.053182775107473809e-02,8.928476984209162026e+00
-8.823328154360064735e-03,-3.134477685518294310e-02,8.996468175144617163e+00
-2.557193154057671794e-02,2.541492413933387970e-02,9.020861543334914856e+00
3.462440456988660786e-04,-5.599866822287056373e-02,9.057664118272077403e+00
6.135706143712509747e-02,2.085085707271357516e-02,9.023879636161666440e+00
2.832523865382944803e-02,-6.795296113091149615e-02,8.943331971622434651e+00
8.431080523461431664e-02,7.435680763130330696e-03,9.038469240244239700e+00
4.922409057564609836e-02,-3.632370453693854750e-02,8.944133573173541407e+00
9.964378440557682126e-02,-7.199724295619274080e-03,8.910042591249382582e+00
2.067110467173128782e-02,3.950605866030314217e-02,9.029713855972602232e+00
-5.121276275019818330e-02,-2.152153852628790193e-02,8.999793482390218813e+00
-8.003951177355396462e-03,7.074853545202011013e-03,9.037634017443515688e+00
2.503355318251978406e-02,-1.420591884595733337e-02,8.965613078441226236e+00
4.411599260888389440e-02,3.694792380924251385e-02,8.970315571065185623e+00
-1.208543495470181493e-02,6.158222590694496096e-02,9.003114234968059293e+00
-5.078460924519461774e-03,8.356945676638095552e-03,9.018093148771397338e+00
-2.518432069671073040e-02,-4.208334460501357566e-02,9.002371841530520058e+00
-2.399730736051272108e-03,-8.658236068409690817e-03,9.057005872177340322e+00
-3.417674536541238928e-02,-7.737287009564093598e-02,9.059488866637938287e+00
-7.220896306749244146e-03,7.433398177297106946e-02,9.032131227893218650e+00
-3.305219838046877939e-02,-1.769620284337952362e-02,9.045222603310776321e+00
-1.009950828266595740e-01,3.801487855496114149e-02,9.012997401778438444e+00
-4.470801457887956659e-02,3.987895651713492529e-02,8.959382367097450839e+00
-3.550367947779580619e-02,-3.808176715214255798e-02,9.013669492557644602e+00
-9.678275491766880761e-03,-6.216382837029303665e-02,9.004863376733968749e+00
-2.552487731248907765e-02,-3.033083764397742979e-02,9.020965921490518014e+00
-6.311370935015289674e-02,2.543661268198088576e-02,8.988304924586048017e+00
3.117537718029252808e-02,-5.688927648982954749e-02,8.979039976018500013e+00
-5.536976802098715622e-02,4.795746142669313899e-03,8.946948354518129420e+00
-2.643868119884128579e-02,9.390426707848568977e-02,8.966435558095762204e+00
8.912432034332857383e-03,1.345277293299463987e-02,8.999837246983098282e+00
4.963676423992141942e-03,-4.737691292309626628e-02,9.061625204632745678e+00
1.438899116918937460e-02,-4.131009395705889653e-02,8.997063733045159495e+00
-1.059260423106242119e-02,1.629749822257407993e-03,8.908977526608079955e+00
6.546869929373935748e-02,-4.283660035097449498e-02,9.026663712327248845e+00
6.020081323380842113e-03,-2.197242583703993418e-02,9.015425100231334810e+00
6.409595900776977884e-03,8.007876215879522475e-02,8.967925938461911883e+00
5.860946197181998024e-02,-3.597716044420901094e-02,8.957448738774264285e+00
2.928381333979063542e-02,-4.810663358470654294e-02,8.949808026432243935e+00
4.008908539125081300e-02,-1.093551626658909037e-01,9.025366154402037822e+00
-9.745160893328547527e-03,7.894607126034861033e-02,9.023498981565545307e+00
-1.976765252441195844e-02,-1.404705127082444410e-02,8.956689112183092050e+00
1.739908009907158160e-02,-8.064508632904369284e-03,8.991518246869746989e+00
-2.525342886059325775e-02,8.369290164268965160e-02,9.052234609416901279e+00
-3.757300034132025901e-02,-4.062432330789286089e-02,8.961389526996017096e+00
-6.622174704174744325e-03,5.571351791926182351e-02,8.967345080012799841e+00
-4.457840740106247361e-03,-4.112583408744180380e-02,9.005729317924449973e+00
1.587989772493117110e-02,-3.002257886573374973e-03,8.989884489716095217e+00
-4.223617069668210433e-02,-1.032585561508721494e-01,8.928434162312385070e+00
-5.656438648627300225e-02,2.656569752784785493e-02,9.064384694349882921e+00
-4.181538777833897214e-02,2.361746655373394080e-02,9.031414895646740604e+00
-2.051706786187025913e-02,-5.957186137591656550e-03,8.962733467803767340e+00
6.095035444318613188e-02,-7.010948196463137605e-02,9.004451686526513399e+00
3.460702781091515995e-02,2.144417704112271811e-02,9.091027599003899340e+00
-1.782762538116839084e-03,3.238087758343614897e-02,9.083167677051649846e+00
6.192447844443620814e-02,2.375314635849213891e-03,8.961659730689769177e+00
5.699956660119864967e-03,1.724349225294239448e-03,9.070696402114792889e+00
-7.500190497047859450e-02,-3.709274524556511327e-03,9.003265438693972555e+00
-3.018925849510447484e-02,3.962744926298873704e-02,8.961244988326118488e+00
2.651752147758064740e-02,-2.143139783684528538e-02,8.955027597990996568e+00
-3.533198785032314743e-02,2.040907629030394230e-02,9.013792846115714852e+00
3.573318409143576985e-02,4.480231577542263116e-02,9.050579343488163175e+00
3.949432718940233851e-03,4.994122010605685225e-02,9.006030074454283607e+00
-4.870134232887140049e-03,6.461381107461983304e-03,9.013341301746203627e+00
-6.523698948279019194e-02,-3.779192156778518608e-02,9.044414795496484416e+00
5.763608264427533961e-02,-2.353959191670973797e-02,8.946028964331599553e+00
5.968857791376287053e-02,-2.832054502008319544e-03,9.073031465741525636e+00
-3.762342621704904688e-02,-2.300602101797147303e-02,8.856564268293729114e+00
1.894435641879666302e-02,-9.553880761654238996e-02,8.960917590992712789e+00
-4.073643010587381721e-04,-8.705606413860678128e-02,8.988502436891597114e+00
-7.824822669461863056e-03,-2.299131213329505541e-02,9.014328313736733378e+00
2.775144023462451995e-02,3.269192834405097031e-02,9.035794649450757277e+00
-3.231001411400367257e-02,7.361133995728344134e-03,9.020947733054873297e+00
2.366186628284588922e-02,-8.142252793112254861e-02,9.068675133809758648e+00
-4.507390073323236379e-02,-5.244734437971311503e-02,8.999514078143761253e+00
-2.649683658737419373e-02,-4.701639643630579901e-02,8.972454204169798331e+00
-6.507919240669206296e-02,5.250770989810485401e-02,9.006170670819813040e+00
3.665193515010844311e-02,-9.361162220981603110e-02,8.993715200802709475e+00
-4.801871208102441446e-02,1.762386810468726320e-02,8.938679103953221627e+00
-2.992889559619867470e-04,4.713229208473538462e-02,9.014332442239565424e+00
-1.617204717450081456e-03,3.831295986553725358e-02,9.029674956737322233e+00
9.184411253324016242e-03,5.802012846277352504e-02,8.924447975213407602e+00
-1.179374543251309349e-03,-1.957645326985634968e-02,9.010595071371898968e+00
5.096170233210054606e-02,2.396555608425315897e-02,9.005091578532844920e+00
-1.495731106649247563e-02,-2.493255774152409662e-02,9.004934728511967634e+00
-6.304393344039996294e-02,1.720883833016264436e-02,9.030285834391177602e+00
1.491265563220727994e-02,2.444724574100010442e-02,9.070897553547352388e+00
1.200278490014655350e-02,-2.593547428271962205e-02,8.981768004530888305e+00
-2.698070414727205338e-02,-5.900415989795277857e-03,8.959821380986465300e+00
3.628178154456228321e-02,1.406984051946280970e-02,8.989139520147633178e+00
3.194154670822354353e-02,1.145123528984261230e-02,8.962944481147248510e+00
-2.327716349377075000e-02,2.893878205235504708e-03,8.996358022866802528e+00
2.095153373546138412e-02,4.149835893449534130e-02,9.049124524998017449e+00
-1.107538420330988344e-02,9.913991394438673166e-03,8.967245543768106231e+00
7.922863814371482617e-05,-1.530170765056487574e-02,8.976194364829840566e+00
6.114458071075205836e-02,4.659787391873967261e-02,9.009236983235966889e+00
-6.862166831190474880e-02,2.910100044368669689e-02,9.026114134311940873e+00
3.625990036765724261e-02,-1.665118888686876672e-02,8.984908329285625328e+00
3.765866962633349774e-02,-1.694698544250762551e-02,8.984037713039432660e+00
4.186584354311993772e-02,-2.178298059536323827e-02,8.993949833296344565e+00
-6.293515051962553578e-03,2.384491862559748755e-03,9.015232521574176872e+00
-3.714248925044504740e-02,-9.605079475404465494e-02,8.938864234515529361e+00
6.254893497220148646e-02,5.094197090382134030e-02,9.022772329176811823e+00
6.866590465471933413e-02,4.523977950526465036e-02,8.944802361501150045e+00
-2.098813500434794366e-02,2.511579964472337653e-02,8.911051524022315817e+00
-1.919819649191517943e-02,3.197709435969366826e-02,9.004656153091282533e+00
8.251086417751588020e-02,-3.481847430280741312e-02,8.964908309356832916e+00
-1.877995721771975532e-02,-7.090895831065609223e-02,8.960976995811511969e+00
4.736997625006868912e-02,1.085594423292323037e-02,9.028839537627689538e+00
-1.226342507874795575e-02,3.029560582083903539e-02,9.053985305773590397e+00
-4.077397676847507868e-02,4.578884423198591874e-02,8.940537373318322878e+00
-2.784766697367896653e-03,-2.519103624507647993e-02,9.045509644744548439e+00
-3.359654935702896354e-03,-1.059512724486943828e-02,9.033478807534992328e+00
5.259945327263950560e-02,1.145318058189583876e-01,9.001910132121608399e+00
-6.296033106182126471e-02,-8.064833197830022227e-02,9.023619002562378810e+00
7.853785548614306000e-02,2.476419014282613823e-02,9.106060193191385821e+00
-2.307346443867791530e-02,-1.158100925684483334e-02,8.976864096290615436e+00
1.925380802158935256e-02,5.557555055663615518e-02,8.988553039734824779e+00
-8.921453789783338750e-03,-5.125739551780270596e-03,9.026605277351535506e+00
-4.575862332851192427e-02,-3.069783907377588925e-02,9.003264074709090181e+00
3.143282137912479374e-02,-6.891521624444664484e-02,8.988595468657113230e+00
1.141451036608732462e-02,-4.270310778653079592e-02,8.926794612855548650e+00
-3.866598786117674685e-02,-3.402390358582957353e-02,8.929870966590206294e+00
-4.176134721400126537e-02,-1.380002191723981057e-03,8.980385564333888126e+00
-2.013023467615918452e-02,2.255426830717955147e-02,9.030367168452007931e+00
5.039003560035456436e-02,-3.841945125756648927e-02,8.925549003304134033e+00
1.314236947107357868e-02,-1.260186109643500474e-02,9.004491674271452695e+00
-3.568115815640569843e-02,-1.516588446880036065e-02,9.024140186487038306e+00
3.155562442393924222e-02,-5.569450737039097904e-02,8.939156530101369569e+00
4.729794516223893158e-02,2.514238175157348931e-02,9.022611625243703415e+00
-1.049816696254994852e-01,5.217587240822802591e-02,8.964985458965021081e+00
-2.513161114440386895e-02,-5.528298887777694307e-03,8.957457202139554653e+00
6.342148946887012084e-02,7.874728618020482296e-02,8.908075047897542120e+00
4.046186964849551870e-02,-1.785264205994994968e-02,8.995407823597597385e+00
3.782071168940996653e-02,7.470502843281627559e-02,9.009266483198979714e+00
4.457164392384760365e-02,6.897774838748885196e-02,9.052595161931881407e+00
-4.976863501647354332e-02,5.662621032770831508e-02,9.022308182629146245e+00
-2.279502016801911862e-02,-5.030127020583666925e-02,9.004204464878968750e+00
-3.367473183099035927e-02,1.388262646317756262e-02,8.959733708316131029e+00
2.293734502313591467e-02,7.495188975412060001e-03,9.011851816591226694e+00
-3.525454998990914385e-02,-5.618098730895371151e-02,9.038051389181484652e+00
1.675666388802648371e-02,-4.769511461586519591e-02,9.049855142107480432e+00
1.716658431931695344e-02,-3.927735500105263705e-02,9.004851571254439691e+00
3.772746598170936133e-02,-1.578176636784595424e-02,9.069557440069678123e+00
-1.094295394735078295e-02,1.817428811170553743e-02,8.876532042379610132e+00
-1.327436789388600040e-02,-7.325269454394407742e-02,9.048964571796791034e+00
2.731527926829116146e-03,-2.422334544299096625e-03,8.983945043512431283e+00
1.078803829845360884e-02,-3.900107934785369823e-02,8.989895909073100100e+00
-3.184916981804962466e-02,1.360363263393742214e-03,8.993194597395758549e+00
-7.276537873062038919e-03,-1.727010671749741599e-02,9.028904991437467942e+00
3.772701344564150048e-03,3.733890050667472427e-02,9.016317330075606762e+00
5.435113095170616970e-02,-3.044693332711549336e-02,9.026397548031306783e+00
6.946424636855256553e-03,4.329944301427496203e-04,9.064423937469967996e+00
-1.126101826174813990e-02,2.201241309541378255e-03,8.938411682393375912e+00
3.430649572351056331e-02,5.996196233406184822e-02,8.961683400219493834e+00
-8.269952767544283892e-03,-1.070941669128832804e-02,8.991124308240925345e+00
-3.385177623998265450e-03,1.571674387032733280e-02,8.998574924643239825e+00
2.596185912824179598e-02,-1.632106259861949848e-02,8.943111895211911744e+00
5.685390588292840025e-03,-3.623035133182855166e-02,9.055560714459394589e+00
2.294252066557465886e-02,-1.692035020692194899e-02,8.957538240587753720e+00
-5.025142532492448549e-02,-1.282864826442100398e-02,8.982323264105273708e+00
2.956434858756292264e-02,1.680789613253135580e-03,8.997053335052282108e+00
-4.366599377531353576e-02,-9.571758282171450791e-03,8.944582093278016899e+00
7.599813546344090162e-03,-3.359740126739700627e-02,8.997717390375703062e+00
2.450349900149121837e-02,1.808202617980842267e-02,8.959366938852097562e+00
-5.088839212768710152e-02,7.767489106199708393e-02,9.064004003781565899e+00
1.397777626696448082e-02,-4.447739219198171973e-02,8.997368467369884826e+00
1.395245112516486224e-02,2.069535340397676143e-03,8.951160871658910168e+00
4.141797193482310915e-03,1.202595058806768188e-02,9.037530509576980009e+00
9.115807206275215735e-02,-8.156877241747545471e-02,8.966185135586940191e+00
2.540846523208356925e-02,-6.537187751684735149e-02,9.088476256030846301e+00
-1.381427058190157035e-02,7.476925428808280268e-03,9.039042405885503229e+00
4.456188438546887509e-02,-8.735744016213314693e-04,9.040785534631487153e+00
5.092300673605727052e-02,1.057174318108102147e-02,9.013911946622762628e+00
-2.562668772902357717e-03,6.929731877650170159e-03,8.947420735058873476e+00
5.539451857708082433e-02,-5.508887955060107894e-02,8.955063358670745544e+00
-9.424455962758530002e-04,1.943493426330898319e-02,8.996376558259065348e+00
1.481635829560918119e-02,-1.774145807844998424e-02,8.969151484512545736e+00
-6.384511635091673354e-02,2.183705508234747364e-02,8.982564902946140961e+00
7.607406062989732765e-02,-5.702561220890701305e-02,9.053459854680999896e+00
4.680149902325612260e-02,6.253341041537634204e-02,8.897161027992419591e+00
-8.549874260624799882e-02,1.785772188505542826e-02,8.910981348900843813e+00
4.823510689481938160e-03,2.118136396411335332e-02,8.986393105631041323e+00
-1.194076301677469325e-03,-3.590472100188020488e-02,9.000192353585894978e+00
1.980414115231468597e-02,-3.396363393353420135e-02,9.035112930893996364e+00
-1.093621652211792389e-02,-8.121749310802342525e-02,8.969687596242286176e+00
-1.103000936322479086e-01,-3.285097385300139727e-02,9.098445042742438815e+00
-1.498081930583823173e-03,-5.335507980894545893e-03,9.033486349805581739e+00
-1.796049113120666563e-02,-3.672742531727916926e-02,8.945954468642847601e+00
-5.472783646990445755e-02,-8.883552116275320043e-02,8.959992718635620079e+00
2.729689356340817344e-02,-1.611319944895454534e-02,8.925906404020235385e+00
5.118703094184501312e-02,-4.531573634995599703e-02,8.948113330382778230e+00
-3.341486816999598292e-02,5.915555675600675523e-02,9.015811010249356272e+00
-2.756646990259134164e-02,4.174004785130935175e-02,9.066068700730019359e+00
2.518417426335503584e-02,8.744386452292411682e-03,8.975507703895841516e+00
-1.113061325678895395e-02,-2.262877181909545704e-02,9.001983877063894468e+00
-2.544930645816520856e-02,-1.062919487024365471e-02,9.016028769301797752e+00
-1.344224868672090449e-02,4.396110396706372214e-02,8.985662972099975221e+00
4.048471879905741339e-02,-4.606569327231323230e-02,8.993395735372299526e+00
3.363754874044483974e-03,-1.479197001083798653e-03,8.944754554862310414e+00
1.011155006038169657e-02,1.376031387819302279e-03,8.938993703610300656e+00
-1.005936950544659113e-02,-3.710574133200836983e-02,8.976482095601898692e+00
-1.812392226292649719e-02,2.914064045683339554e-03,9.023472966108560200e+00
-3.692730546397751668e-02,4.563153810493628809e-02,8.936767176072923036e+00
3.314034333135548738e-02,-5.242762283568266207e-02,9.054274749761622942e+00
-3.064550638753368167e-02,2.394843983343972540e-02,9.013167865053304695e+00
1.470355338549003341e-02,4.391661772356277027e-02,8.961945194411351068e+00
-3.215224330804146435e-02,2.071784785682398086e-02,9.054451297720792269e+00
5.339973187420847534e-02,3.513275685212072230e-02,9.045592247719900669e+00
7.205889997540738945e-02,-4.385580234410559747e-02,9.022821924869887766e+00
-2.684307865096561413e-02,-3.916289074505847206e-02,9.049274412354982644e+00
-2.877783646457839073e-02,2.249420709276809399e-02,9.012819603009162961e+00
3.527333908242874516e-02,4.398671657846402183e-02,8.950775740877974229e+00
1.450938007357584041e-02,-3.041858681838683492e-02,9.020178455198808010e+00
-3.979908561627371749e-02,-1.618518531604977786e-02,8.983979913762517810e+00
1.272450241156973527e-02,-1.090263752848845500e-03,8.942990063120404898e+00
4.260226964730597088e-02,-3.190067616580130605e-02,8.982345766845515556e+00
2.018216554688480324e-02,-1.717818806150087085e-02,8.953734652251929660e+00
-1.761486317527857087e-02,3.521630470808212454e-02,8.984654194786571679e+00
1.230586793411828084e-02,-3.168049275651745739e-02,8.986793224285820614e+00
-9.957036314527777099e-02,-1.255534774767563463e-02,9.016772574961084530e+00
-4.697252746061413020e-02,5.307207725031360540e-02,8.963482328971137392e+00
6.181877201594974253e-02,-2.506626724576679118e-03,8.931365956180993493e+00
-5.000788924278650946e-03,-4.564071787643919631e-02,8.955814654261329721e+00
1.018454154454277727e-02,-7.142324893690759659e-03,9.045046302879306666e+00
4.388729152929463778e-02,2.375986904347721345e-03,9.012357037573702101e+00
1.029462510672524665e-02,4.554091588618421060e-02,9.044814338042382218e+00
7.105415689465305329e-02,-1.197680902003585117e-02,9.054694044970544198e+00
6.129330761997811745e-03,1.596963190733896240e-02,8.953325761775753122e+00
-1.895471161579490374e-02,4.016352870224422500e-02,8.929959063207160597e+00
4.315422365661163162e-02,3.239631192181850056e-02,9.024320521493955027e+00
3.575092940825615878e-02,4.678232322065451615e-02,8.924127242157002371e+00
6.538666107693764940e-02,-8.102163506058905618e-03,9.010033462405033333e+00
-4.649261834609499933e-02,5.322619981030229236e-02,8.950316806011095139e+00
-4.026527096075746548e-03,7.802086309439637719e-03,9.047304029217643873e+00
-1.095490594517732966e-02,-8.317638648326730610e-02,9.009418178905997721e+00
-4.617665614205643254e-02,-1.079951615453162914e-02,8.962419328004664010e+00
1.800331682147164256e-02,-3.151959292546007568e-02,8.954152520576824870e+00
-1.534346740282429428e-02,2.490027196625349895e-02,8.999664465552674741e+00
1.438818267717260554e-02,1.878242429150265430e-02,9.012304606870813473e+00
4.772189727202390264e-02,-2.277852629910607010e-02,9.005663990295142085e+00
-2.923095157139942238e-02,-1.242201944782428055e-02,9.009556994483258308e+00
-5.480884584097198836e-02,-4.353304343815663641e-02,8.943907284322936135e+00
2.174482691079521191e-02,-6.652046142091599945e-02,8.986880590532265956e+00
2.982196622760930824e-02,-9.153778062083122932e-03,9.044231161890044390e+00
-5.285142567218125559e-02,-6.002014918845863939e-02,9.011643033972413619e+00
1.376350371330593153e-02,3.093515640107950479e-02,9.053088860412348282e+00
-3.331851366800270969e-02,2.822460769638794262e-02,8.967366409747000944e+00
-3.779108782494319113e-02,-7.485028867139776991e-03,9.007712710841829562e+00
-2.294118166281230650e-02,2.592063824389925428e-02,9.044435708388979478e+00
-1.166413781120182597e-02,-8.567322136447693900e-03,9.002351358721496055e+00
-2.471642054907398009e-02,-1.704343567325292130e-02,9.016178297931183749e+00
-6.348396962135940957e-02,1.356435603287462974e-02,8.981331932371567461e+00
-5.330745500911107659e-02,6.450084919134041472e-02,9.111258992762135023e+00
5.914104422035771497e-02,4.081656316560620945e-02,9.030681187204333327e+00
5.777462783503915789e-02,2.267180367866242566e-02,9.028067600126867376e+00
5.035774017958513649e-02,1.332823540550342849e-02,8.994958162135214152e+00
6.397605560926787616e-02,-1.884800455507958800e-02,9.025973036031121666e+00
-4.925544551758562206e-02,4.099176811011910788e-03,9.015179947828102058e+00
1.610891731176852804e-02,-5.700752121563862351e-02,9.004329624719835223e+00
1.025980692526743754e-03,-7.200292675660441288e-02,9.028719223047144027e+00
2.778525370213114076e-02,-2.343164800451064816e-02,9.038554087947272109e+00
5.043697417278506651e-02,-2.414118753066185619e-02,9.047540774801436925e+00
1.270032554420562065e-01,-2.068243493131946553e-02,9.092685026610231702e+00
-2.065337714800909164e-02,-5.298035163296706263e-02,9.009410861038167795e+00
3.546381918672172895e-02,2.409654545136120235e-02,9.068073840550193054e+00
7.460969705332047563e-03,1.820279124049078295e-02,9.063999691852425045e+00
-2.549089318578266761e-02,9.725725143832415764e-02,8.963863802508623024e+00
-7.649364973260136535e-02,6.030965856369412820e-02,8.970177080414780235e+00
-4.343835043316400524e-02,8.685369482667036622e-03,9.159290370793419456e+00
5.667262803016670514e-02,-4.575115392384729307e-02,9.029267570087643691e+00
7.174143291487344865e-02,1.034136897256477837e-03,9.024846511253487691e+00
-2.742311988095973499e-02,-4.976977453267442120e-02,9.073527407579978998e+00
-2.427117678207633272e-02,-2.243425910168817330e-02,8.912329281871238962e+00
2.296097511712520689e-02,-1.561146885649157025e-02,9.036389586335779711e+00
7.997818896234758571e-03,9.510366529584084183e-03,9.039132440295627902e+00
-7.904837784901455958e-03,4.933197380003300631e-02,9.053701457130802766e+00
-5.114725465271557914e-02,-4.523336751650664650e-02,8.985160859405125322e+00
-1.462166588179381055e-02,1.188903097181134676e-02,8.929635306342486700e+00
2.213926004237536105e-02,-1.103045783134801519e-02,9.011649359086327138e+00
1.044412663454949569e-01,-8.371161870503724886e-03,8.983374783712100964e+00
-2.010727383803691921e-04,-5.798995398633421255e-02,8.977669737831543983e+00
6.721932127930846379e-02,1.268005358160499002e-02,8.944409598268075356e+00
-2.587578071986876282e-02,-1.720176877934082114e-03,9.011855665126381254e+00
-7.075259628098810351e-03,-2.666490072644555395e-03,8.988119827019948715e+00
2.905424134287609705e-02,-1.237602003545090843e-03,8.932609644202159416e+00
-3.501355174879506107e-03,-3.853041669940474034e-02,9.013837134977116250e+00
3.449534193323463421e-02,5.436559485955801824e-02,8.952332736336488850e+00
1.012800570212456057e-02,1.068812216025994029e-02,9.035594328638616446e+00
5.943365920185336021e-02,3.954370784664871380e-02,9.015222139176451321e+00
-4.504827961974394723e-02,-5.842534702261693857e-02,9.047693067597018413e+00
-1.316228884100398289e-02,5.274715773976129674e-02,9.091884996426212950e+00
-4.006580076782161048e-02,2.464331401278522030e-02,9.026409926999367173e+00
5.984353587586292017e-02,1.379299290938488555e-02,8.975125927549287397e+00
-4.775504750391600106e-02,5.318155033398037912e-02,8.911123296496988644e+00
-6.392394545811216910e-02,-2.750464654564886702e-02,8.979687966332129179e+00
1.212827164774419979e-02,1.216690908415852179e-03,9.022373994787585616e+00
-2.724819305539426251e-02,2.567553331242706030e-02,9.074281361539274116e+00
-1.155041775840127700e-03,1.194546463255797761e-02,8.952260926454346901e+00
-1.232034994698706504e-01,-3.292584012221812934e-02,9.028706817232510673e+00
4.484271759662685625e-02,5.226175355508030224e-02,9.000386158215107457e+00
-1.974325306349144354e-02,1.230691053771252180e-01,9.028628433994176916e+00
2.403686323365933006e-02,-3.091017964635500714e-02,9.012479305948906116e+00
1.287825898113357376e-02,2.960691897596322893e-03,8.978657970004325861e+00
-2.414024815295166132e-02,-2.040679811801972277e-02,9.040216342679606498e+00
-2.308129675781973259e-03,-1.237943570527176296e-01,8.921351910832493459e+00
-1.234261329408668437e-02,1.889805276041981244e-02,8.949086415042854625e+00
-9.098142370319020622e-02,-7.604616585748949498e-02,8.959880726339186197e+00
6.249558578553968298e-03,3.554666420535206039e-02,8.950644222854002408e+00
-8.904085530862493672e-03,-3.272789231918885045e-02,8.990211727335980285e+00
-2.252213896310487767e-02,3.613166017114751577e-02,8.967082211037915584e+00
1.015626777791343860e-02,-4.559574811919238357e-02,8.989574419053287357e+00
9.323962582705815766e-03,-1.987653349248474921e-02,8.933153293722334354e+00
1.660669471328458718e-03,-3.679566345818065243e-02,9.007443700002815135e+00
-1.532292583037612316e-02,-5.841805690823032721e-02,8.986301426963793304e+00
-5.010656721175093392e-02,5.666324980702093506e-02,8.998073823688491402e+00
-6.470623662611404980e-02,-1.945522884338024908e-02,9.003418983233558492e+00
-2.215316421610146955e-02,4.271881934028894101e-02,9.020051361825256464e+00
-3.910704481897485374e-02,-1.519616318256636865e-02,9.053478038603255840e+00
2.608898211173535722e-02,4.264508728370239310e-03,8.999831386566686575e+00
-9.539366716864849244e-03,-1.367213404322369617e-02,8.914306592383836048e+00
3.767092621405517677e-02,3.355266629271705381e-02,8.998416079579861560e+00
-7.503948225412254702e-02,-3.543465914298039865e-02,9.057595590446199552e+00
2.258547960671291807e-02,4.248349861530566207e-02,9.070351003582237226e+00
-2.273845626827807054e-02,5.228991172037654456e-02,8.962561758240614296e+00
-1.577625004494468547e-02,7.237933553005255517e-03,8.935230593733628268e+00
-7.884854616456650478e-02,-5.034052561641038509e-02,8.985036115149661384e+00
1.644057551182901908e-02,-3.295126597587219597e-02,8.964740887227957700e+00
1.742526274079169227e-02,1.160900334884478087e-02,8.966503457738973282e+00
-1.170425522850695316e-01,-1.424264140326760584e-03,9.015255361815407653e+00
-4.738347007473221739e-02,6.935613295261307265e-02,8.907663585505035897e+00
-1.169461533357325604e-02,-3.393778805686600147e-02,9.003389990068090043e+00
5.165808568364297498e-02,8.272137257422974843e-02,9.101252880052124183e+00
-6.138155876800670437e-03,2.422849877446813308e-02,8.990114346554369362e+00
3.934724895329844846e-02,-9.165550630631653928e-02,8.981349401513435637e+00
1.567281090986104644e-02,-2.518741157692416539e-03,8.995541826160005527e+00
-1.620616408372732228e-02,2.436353175213976097e-02,9.023304548744517817e+00
1.525643069671607857e-02,1.876960804332375443e-02,8.998599874157195089e+00
-9.836785951600762745e-02,-4.157131283620658230e-02,8.999942819074924216e+00
-1.335471783741408436e-04,2.611575681318454765e-04,8.953369699605188359e+00
4.232460118734940324e-02,-4.391734717064417481e-02,8.981114474600570219e+00
-3.964300484419167742e-02,4.869578697356050784e-02,9.006019884958796240e+00
-2.068526555217047036e-02,-8.296428834478756717e-03,8.905861961142528926e+00
-4.330328250102722515e-02,3.489552480013375507e-02,8.970308304510441033e+00
-3.331171157507109570e-02,-2.913881386087958242e-02,9.023511888303294981e+00
3.176145467206440559e-02,-1.438860750244491497e-02,9.037860778908010317e+00
-3.088102114194292425e-02,-4.210021062421084870e-02,8.976295237628626467e+00
-4.966247978818118247e-02,1.234111899820668559e-02,8.936407315456147415e+00
3.062065903191022245e-02,-3.862539645312965814e-02,8.996147848888886855e+00
-5.203035343004053064e-03,-5.653633628498334895e-02,8.946780819130035312e+00
2.061749147740533916e-02,-1.220135623495392264e-03,8.867578718163899865e+00
4.739234237437939951e-02,4.449162292023601389e-02,8.973619242875811253e+00
5.892043984794259615e-02,-9.811904455977023265e-02,8.994336860842890857e+00
-4.629763664161146847e-02,-7.246677089988880216e-02,8.978237903489835858e+00
-4.265347281328922546e-02,-2.089785379595919881e-02,8.988840622985403428e+00
1.750228992132485742e-02,-1.567781635923435474e-02,8.957136070489173818e+00
-4.059275893668532614e-02,7.216707602927016629e-02,9.020058876465478548e+00
2.133749391857477778e-03,9.379730975339256593e-02,9.026017797185373226e+00
-2.253721940800389872e-02,-1.465930473539923604e-02,8.965197565842856875e+00
7.464161186069405429e-02,-2.909373436160865925e-02,8.998124660148517862e+00
-3.986599291955756491e-02,5.730783181675634316e-03,8.951400017216506910e+00
-4.963511788897492089e-02,-6.168454631631416218e-02,8.974420672676075128e+00
4.817263963567982796e-03,-3.816179707107041075e-02,9.003507414082102756e+00
3.799441258751849737e-02,1.710726730083455757e-02,8.950738799041960903e+00
-2.374001136771735146e-02,1.868714294710127621e-02,8.991869836468577404e+00
-7.721759878766193408e-02,-8.200911934082581733e-02,8.960454720075798463e+00
1.980222537854009479e-02,-6.604884286107561009e-02,9.019873281861666925e+00
1.273207693395401151e-02,2.940797908222195570e-03,8.922195253055194897e+00
5.704499214280408376e-02,-2.518249397833090264e-02,8.952660544923322306e+00
-2.677092358239266390e-02,-7.742887254853000195e-04,8.901667449459690573e+00
2.977352762850526621e-02,-5.467942662119287811e-02,8.956789832929279882e+00
-6.888010246408666874e-03,2.203647628227668395e-02,8.977737420330939244e+00
2.107844759440901869e-02,-1.343993374732911812e-02,8.997755676001482072e+00
-3.306352370215596709e-03,-2.337573140573629901e-02,8.994629291969740592e+00
2.246200051956133772e-02,-1.036419424331767349e-02,8.959617038099054298e+00
4.410248590192675927e-02,-7.892934612979100872e-02,9.015170755924124535e+00
2.897994055574912645e-02,-1.527878575925524333e-02,9.007601832391195273e+00
1.120969548563767459e-02,3.863457619165049789e-02,9.040884489258591117e+00
8.709857679158575228e-02,4.138951357586660024e-02,8.925202828315292436e+00
3.243676809203748738e-03,-3.238305803731401922e-02,9.054625420884084619e+00
1.531637339667361701e-02,5.037400894561391146e-03,9.006757077444616399e+00
2.293578766187297571e-02,5.535704158420017007e-02,8.948967189540086409e+00
-1.950180270245427047e-02,-7.138634401078564930e-03,9.012809660123389577e+00
-6.789635203752508730e-02,-3.418925951786953854e-02,8.990907140974925937e+00
-7.173339002335094722e-03,-2.306429315248811202e-02,9.015249003508930770e+00
-2.739962262046379340e-02,-2.630995372926778555e-02,9.033161945522550695e+00
-6.495986525790343157e-03,-3.039015576543935976e-02,9.000847552299203969e+00
2.154542593496092291e-03,3.660369242091187497e-02,9.005079367679742930e+00
2.652448243375849987e-02,-1.103211245274383044e-02,8.943301296256016997e+00
6.720776262949676276e-03,-5.315263399033298003e-02,9.006832828966736315e+00
-1.827445810054415323e-02,-2.975733096620135007e-02,8.954314857529249494e+00
6.009086429090872844e-02,9.528496203622231070e-03,8.985077943066317019e+00
-2.698358418107765517e-03,-2.513991548449415192e-02,8.963813796929938960e+00
-2.529948762564281778e-02,8.260034988105093489e-04,8.978267846489497828e+00
5.432716135541477281e-02,-3.239459334941566931e-02,8.974110591096223999e+00
1.086324797972098612e-03,-6.960869249036251427e-02,8.984968148870660087e+00
5.459105298921355237e-02,-3.610575806564692014e-02,9.046582439761969852e+00
-1.124923764882684307e-01,-3.343940044165818679e-03,9.043906333020663268e+00
-3.897085991723223120e-02,3.528912266732308050e-03,9.075355555162117227e+00
-3.440913984775926387e-02,3.506878760330143369e-02,9.034583429106719521e+00
-8.948654679269327228e-02,-6.917661166272320861e-02,9.001338001591568272e+00
5.271355989215325416e-02,8.170805863568469940e-02,8.979216830836024954e+00
9.334663130716338783e-03,4.023181177735136310e-03,9.013875034942003595e+00
-2.960790748095270056e-02,-1.365112035000487500e-02,8.988194884121245565e+00
-8.898246459608878667e-02,-2.879474458910246878e-02,8.975035873534629616e+00
-5.315024594311959505e-02,6.586350038947305641e-02,8.998210100375455767e+00
3.191604966312422409e-02,6.058773433229690947e-02,9.002854660443086132e+00
-1.853885684740118681e-02,2.538872993447916990e-02,9.045972054651986838e+00
4.340466352625228091e-02,-3.595506714118726355e-02,8.960840082515161953e+00
-6.275776075951396138e-02,-7.927774107745140519e-02,8.981096015888644146e+00
1.767127913950434365e-02,-1.933974424967213612e-02,8.916140745080626928e+00
-3.266635726195914191e-02,-5.354062562015372839e-02,9.046983241480754501e+00
-8.136249422760501865e-03,-1.278450564811014524e-02,8.888927008272013097e+00
-1.951693749594545640e-02,-8.496802074344000921e-02,9.009863111207327080e+00
1.240535010485063414e-02,-2.123311489568983218e-02,9.021565938755564673e+00
-1.337791821250621134e-02,1.694841686896489397e-02,9.060196002169490725e+00
-7.043938019841912423e-02,-3.519993700429482116e-03,9.020066338597800382e+00
-4.493953518497293895e-03,-3.244525817341726431e-02,9.023923061784783428e+00
-3.308520843192604187e-04,3.039023116483057299e-02,9.021170200407386375e+00
-3.586415631638515712e-03,2.145778632112506357e-02,9.010080877664119470e+00
-1.794221366640304238e-02,8.943063967214687909e-03,9.049791974840465159e+00
-4.487314646647769245e-02,5.257485987781828490e-02,8.990679276030666855e+00
2.076127496089728158e-02,-4.563714283971394975e-02,9.011700145713440691e+00
2.028403177370713059e-02,-1.859951281408358040e-02,8.988217800486740572e+00
6.538057441258617042e-02,5.415380555404433749e-02,8.972215081574955065e+00
3.841320087801444738e-02,-2.204936278950342735e-02,8.945665329627205509e+00
-3.807960277603624627e-02,-7.996649273073019870e-02,8.942405994488591858e+00
-3.709989384870762685e-02,-3.384448723999133185e-02,8.920681763650042839e+00
-5.454814835832109965e-02,3.813484681779208109e-05,8.959691174506607680e+00
-6.279481311791851317e-02,2.492186274422182601e-02,9.046345826027883064e+00
1.036821891434670795e-02,-3.047799924139871913e-02,9.002496273185673914e+00
5.443038524234553033e-02,-1.896252062472747815e-02,8.961121911632886849e+00
-1.042793766555744940e-02,6.842371483822190514e-03,8.990669380469874739e+00
-1.343424667838231598e-02,5.925625544752169405e-02,8.938684583436755204e+00
-1.096941420805952888e-01,-6.796072126925453705e-02,8.969830317137747144e+00
9.625838320214324950e-03,-1.191010640605425983e-02,8.995640545355488626e+00
7.278514371853275766e-02,-4.793702191146289454e-02,9.002029320283357450e+00
1.444062663508614147e-02,1.449575988851247409e-02,8.958768647636015103e+00
3.765230185091405363e-02,2.717939805950249019e-02,9.006630803078808256e+00
1.467814171934350015e-02,-4.699452884408015368e-02,9.001421723178127721e+00
-3.017571535987941672e-02,-3.601216023598732829e-02,8.987849930204639293e+00
1.748932471588983753e-02,-6.779792362326561572e-02,8.999110511504163412e+00
-6.259328084654679214e-02,-1.709633602779874958e-02,8.979625621644959921e+00
-5.136771457644604549e-02,-7.502100837267831716e-03,8.977957246029644622e+00
-2.797014898336638855e-02,-2.902032532112358652e-03,8.982093774891968252e+00
-2.556351431592266202e-02,1.054818873504759502e-01,9.012663116480855052e+00
-2.600717816413114156e-02,1.043940988062036779e-01,9.017828833691313051e+00
2.508536991186035084e-02,1.670786325903472758e-02,8.983192388933520789e+00
4.851568799978759478e-02,5.486178565895812043e-02,8.956837411726988663e+00
3.273225225388501358e-02,-5.088388225199894782e-02,8.995510138130677902e+00
2.122452345881657015e-02,1.706658214343220736e-02,9.056667250039671657e+00
-2.537034160319647305e-02,1.230013076355459395e-01,8.965712527733799675e+00
-5.014299292557122464e-03,-5.236382240731050908e-02,9.001064453114416608e+00
3.939866499096478236e-02,7.432749360625071078e-02,8.942646201486263990e+00
-1.582758606159635068e-02,1.249882715310629902e-02,9.039605695758599069e+00
3.868807738378614303e-02,-2.597057127087361653e-02,8.982796884921965486e+00
-5.720466937111035911e-03,9.630795720939909488e-03,9.023612827462558883e+00
5.155771622732338751e-03,1.855537484832106739e-03,8.911139613488799682e+00
-4.572867033337695009e-02,-2.619573575117825626e-02,9.046897987473041525e+00
3.875555661717704648e-03,1.025030112222019736e-02,8.947613031737773781e+00
-3.943808798551982214e-02,1.352887982213825391e-02,8.983411224968133268e+00
-1.682218258622792881e-02,-4.746366584861088506e-02,9.004538710938247092e+00
-4.619139585734974990e-02,3.825019505629037152e-03,8.955176014543795304e+00
-1.555667641735254160e-02,1.539170035582820622e-03,9.021721550304199866e+00
4.908416890747127614e-02,-1.909340010113967992e-02,8.948269294213389458e+00
-2.594883837991554185e-02,-7.799369579253905005e-02,9.016723789481750018e+00
-7.075956934929579500e-02,-5.542653011370875238e-02,9.035491566617540826e+00
-1.706164294662319489e-02,4.156347297842168109e-02,9.026675531897959459e+00
-9.706959944833089271e-02,-7.284809472746020531e-02,8.989998668366814272e+00
-8.510056941677768966e-03,-2.157812900240482692e-03,9.002588997870310195e+00
-7.873806194540594258e-03,-4.097325323511769035e-02,8.991800122941180362e+00
2.620112391315582503e-02,-3.591847021533682571e-02,9.024814474243244788e+00
2.951880805278375708e-02,1.031221724451280783e-02,8.960140676028979456e+00
2.522537818585722513e-02,4.400003169728186614e-02,8.984928744356167840e+00
-5.407518066747742103e-02,1.588221221672529021e-02,9.000838765823361953e+00
5.894648482661143940e-02,-1.233552637952291774e-02,9.006505528329540766e+00
6.075151008284646048e-02,-1.784383472358415032e-02,8.970594927605624491e+00
2.007673342784866560e-02,1.099500555030803566e-02,8.970155882923180002e+00
-3.637375585504790815e-02,-6.804828781120166037e-02,9.007126482923906607e+00
9.631640781772679918e-03,1.757622033258673250e-02,8.993291923903237617e+00
3.101222446865314897e-02,7.379393460919900227e-02,9.013608642943253813e+00
4.908128939123205386e-02,-3.923432241550451477e-02,9.019823191068217838e+00
2.467901104374169499e-02,1.161417962828239104e-04,8.977304139409783446e+00
-1.597155016383054738e-02,1.444538170113458288e-02,8.982966333387578217e+00
-1.007101638409715894e-02,-6.368569451451357340e-03,9.039507767803671712e+00
-2.806792313679266904e-02,-2.083783828071794283e-02,9.017502946857186785e+00
-5.051504579273046608e-02,1.575662934595375639e-02,8.958493583592794351e+00
1.622936657507294961e-02,6.858023059668461041e-02,9.009650423046945633e+00
-3.751364434646958096e-02,-5.172548611147931991e-02,8.994845837517788212e+00
-2.909860710307859630e-02,-4.566679058877960024e-02,9.029094540649536427e+00
2.334697503705531960e-02,2.436316721342392938e-02,9.041468022994536113e+00
2.215095427840363222e-03,-3.761316038285435898e-02,9.016378220791395393e+00
-5.451211785005331822e-02,-1.157214493677249240e-01,8.977337135411994851e+00
-1.691946917096846109e-02,7.968082593773773148e-02,8.882600263366002835e+00
3.807262086743587459e-02,1.552094490969378043e-02,8.941686367913884936e+00
-2.004311889964303234e-02,3.405716667565818201e-02,9.053506717507783463e+00
-5.327595916308143151e-03,-5.302160845391448718e-02,8.986440285068882261e+00
-5.796833956016893968e-02,-1.508131117714096338e-02,8.992838818283514613e+00
-2.009605977104873603e-04,-6.079187222851194922e-02,8.956755065780315661e+00
8.245259237893590165e-02,8.686461244153016736e-03,8.993405634736964416e+00
-2.565323593592343590e-02,-8.068893206004434590e-03,8.948685968459008322e+00
-6.103339673187723607e-02,-3.598288643566974893e-02,8.928774531953493465e+00
5.463788869793686359e-02,-6.294456708021767266e-02,8.914179461336765087e+00
2.551450603444324269e-02,-4.712534722104220336e-02,8.973194924426287855e+00
-8.676798121395868507e-03,2.532193545908797971e-02,8.984314288970645990e+00
1.076435815670273577e-02,-1.073188735223677519e-02,8.977111419997212849e+00
5.018159635556541931e-02,-1.051037905895539030e-03,8.944868969335701081e+00
-1.333285062190379261e-02,-5.924677546667486694e-02,8.987198338273618248e+00
3.112681844020808233e-02,4.596853105986167115e-02,8.966030313190515244e+00
1.356994013118527909e-01,5.426254884887880131e-03,8.984084900114496008e+00
-1.876768170890313892e-02,-4.854402208946737712e-02,9.035418964049586776e+00
4.579409752566359487e-02,-4.460678361145579973e-02,8.970489543116340059e+00
-1.431930864008724644e-02,-5.047545411665999016e-02,8.984987992806088286e+00
-2.567126555090181589e-02,2.671469374047081777e-02,9.012947061611939148e+00
-3.281256757301537208e-02,4.860933513574347553e-02,8.993740612003183088e+00
7.513597264669282481e-03,3.124596454487094457e-02,8.994408291364047514e+00
5.046435924308894511e-02,-3.652024027607474882e-02,8.953151646429224897e+00
6.555080042610697544e-02,-5.184267915839100432e-02,8.987725154459825561e+00
3.172304668806211897e-02,-2.581726998134478007e-02,9.013278306296943043e+00
-4.591530135905017018e-02,5.432434054734775614e-02,9.000265807196127454e+00
-1.758865141083321842e-02,-3.778768780474080907e-02,9.042172287589576030e+00
-1.383937313821479755e-02,-4.281617905260455548e-02,8.965128382904499205e+00
5.985959303264497613e-03,-7.642493054924638825e-03,8.997642646501173402e+00
-5.041079481876389011e-03,-7.136483649735471044e-03,8.944641759953613658e+00
5.806182810739691537e-03,-8.649073541202220716e-02,9.007071282450157312e+00
8.233760873280454584e-02,7.140193758208582264e-02,8.946936552071072413e+00
3.430092514749345095e-02,-1.270880709576760470e-02,9.017841491196504577e+00
-1.884229271522226343e-02,-5.414029366075791272e-02,8.985813586040572787e+00
4.281077458470903922e-03,7.718800724810839786e-02,9.005984504881192620e+00
2.248022696846056073e-02,4.162852586297025037e-02,9.047766111797949762e+00
-1.308923976244079357e-02,-5.358993732161580759e-02,8.950440609641265866e+00
2.998224280390362692e-02,-4.611382637191376727e-03,9.003943676008590913e+00
5.869517642808510377e-02,-3.761814491683580786e-02,8.992382389891600880e+00
6.717292457027303210e-02,1.366025344897073973e-02,8.953327903265806853e+00
9.411883210126548160e-02,2.875966034207107225e-02,8.983616780125759149e+00
6.068898545470980538e-02,-3.161383655368125989e-02,8.951565828539919778e+00
-1.943035794398843656e-03,8.527966951994364955e-03,9.024556805561482875e+00
1.069109857458327810e-02,-4.104855410487901618e-02,8.928242808399604158e+00
-8.247925300791618397e-02,2.088115715135547071e-02,8.999146538785746330e+00
3.595152407892624608e-02,3.557962107152650810e-04,9.005679764381428143e+00
-3.869525468672922741e-02,-2.730934254759987204e-02,8.956001999061264485e+00
3.463028626372814667e-02,1.485222673123105276e-02,8.976860199807623175e+00
6.862722944961933969e-02,6.748403277683504009e-02,9.027274965120197336e+00
