ref_gyro_x (deg/s),ref_gyro_y (deg/s),ref_gyro_z (deg/s)
3.543207813446885412e-03,0.000000000000000000e+00,8.977859580299312192e-01
3.543207769734311053e-03,-5.565657795545493484e-07,1.707785958029931050e+00
3.543207445824141967e-03,-1.614040711524492228e-06,2.436785958029930921e+00
3.543206437720465476e-03,-3.122333632036712288e-06,3.092885958029930826e+00
3.543204234069526667e-03,-5.036362063975004267e-06,3.683375958029930786e+00
3.543200261343299254e-03,-7.315551095591323063e-06,4.214816958029930838e+00
3.543193917322782008e-03,-9.923382381999915696e-06,4.693113858029930974e+00
3.543184595479448307e-03,-1.282698827461126450e-05,5.123581068029930741e+00
3.543171702315652156e-03,-1.599678657304037826e-05,5.511001557029930886e+00
3.543154669294282504e-03,-1.940615183851381845e-05,5.859679997129930484e+00
3.543132960643806742e-03,-2.303111961045183978e-05,6.173490593219930211e+00
3.543106078049962186e-03,-2.685012023197578198e-05,6.455920129700929877e+00
3.543073563026301245e-03,-3.084373931881716793e-05,6.710106712533829842e+00
3.543034997581402928e-03,-3.499450220259829098e-05,6.938874637083440433e+00
3.542990003662137202e-03,-3.928667994666014971e-05,7.144765769178088810e+00
3.542938241742647418e-03,-4.370611477328206280e-05,7.330067788063273859e+00
3.542879408842034526e-03,-4.824006295780899542e-05,7.496839605059939515e+00
3.542813236185409897e-03,-5.287705344020899299e-05,7.646934240356938695e+00
3.542739486669395366e-03,-5.760676058005285418e-05,7.782019412124237867e+00
3.542657952251182692e-03,-6.241988963877410685e-05,7.903596066714807300e+00
3.542568451347668720e-03,-6.730807371508408564e-05,8.013015055846318901e+00
3.542470826305913270e-03,-7.226378098716837808e-05,8.111492146064680497e+00
3.542364940986750428e-03,-7.728023123020755355e-05,8.200121527261206467e+00
3.542250678488626219e-03,-8.235132068113691650e-05,8.279887970338078773e+00
3.542127939027497202e-03,-8.747155441554896869e-05,8.351677769107263671e+00
3.541996637980367266e-03,-9.263598548529190552e-05,8.416288587999529724e+00
3.541856704093875128e-03,-9.784016014057076501e-05,8.474438325002571659e+00
3.541708077854993468e-03,-1.030800685280577222e-04,8.526773088305306558e+00
3.541550710017839308e-03,-1.083521003174271985e-04,8.573874375277767967e+00
3.541384560278547367e-03,-1.136530047635321973e-04,8.616265533552985190e+00
3.541209596088908292e-03,-1.189798547607447284e-04,8.654417576000680512e+00
3.541025791598797524e-03,-1.243300144903497538e-04,8.688754414203605947e+00
3.540833126717147800e-03,-1.297011103018031700e-04,8.719657568586239194e+00
3.540631586281324083e-03,-1.350910045045869141e-04,8.747470407530608227e+00
3.540421159324973980e-03,-1.404977717797220604e-04,8.772501962580539825e+00
3.540201838434963149e-03,-1.459196779490899026e-04,8.795030362125480394e+00
3.539973619188428039e-03,-1.513551608668919544e-04,8.815305921715925308e+00
3.539736499661661363e-03,-1.568028132211390230e-04,8.833553925347324309e+00
3.539490480003123791e-03,-1.622613670542635540e-04,8.849977128615586608e+00
3.539235562063485982e-03,-1.677296798310315906e-04,8.864758011557020367e+00
3.538971749076279434e-03,-1.732067218991057008e-04,8.878060806204311817e+00
3.538699045383251595e-03,-1.786915652030664789e-04,8.890033321386873411e+00
3.538417456199135624e-03,-1.841833731266131655e-04,8.900808585051178667e+00
3.538126987411067351e-03,-1.896813913501830292e-04,8.910506322349053931e+00
3.537827645408354264e-03,-1.951849396225011372e-04,8.919234285917141847e+00
3.537519436938767539e-03,-2.006934043547121190e-04,8.927089453128422392e+00
3.537202368987958818e-03,-2.062062319548774083e-04,8.934159103618572573e+00
3.536876448678957698e-03,-2.117229228288361508e-04,8.940521789059708624e+00
3.536541683189065900e-03,-2.172430259808249067e-04,8.946248205956731425e+00
3.536198079681790191e-03,-2.227661341539070058e-04,8.951401981164050170e+00
3.535845645251697259e-03,-2.282918794562540645e-04,8.956040378850637751e+00
3.535484386880372552e-03,-2.338199294247142663e-04,8.960214936768567284e+00
3.535114311401859818e-03,-2.393499834819567094e-04,8.963972038894704397e+00
3.534735425476172310e-03,-2.448817697478488644e-04,8.967353430808227444e+00
3.534347735569638368e-03,-2.504150421696551719e-04,8.970396683530397652e+00
3.533951247941008022e-03,-2.559495779391881502e-04,8.973135610980351728e+00
3.533545968632402067e-03,-2.614851751682224236e-04,8.975600645685307910e+00
3.533131903464269228e-03,-2.670216507963559232e-04,8.977819176919771493e+00
3.532709058033673116e-03,-2.725588387080784668e-04,8.979815855030787830e+00
3.532277437715306175e-03,-2.780965880381313466e-04,8.981612865330701467e+00
3.531837047664697186e-03,-2.836347616463355753e-04,8.983230174600624451e+00
3.531387892823189493e-03,-2.891732347449428760e-04,8.984685752943555315e+00
3.530929977924296154e-03,-2.947118936632615741e-04,8.985995773452193802e+00
3.530463307501125868e-03,-3.002506347358310681e-04,8.987174791909968263e+00
3.529987885894588211e-03,-3.057893633017930504e-04,8.988235908521964745e+00
3.529503717262170472e-03,-3.113279928043391964e-04,8.989190913472761224e+00
3.529010805587081811e-03,-3.168664439802305216e-04,8.990050417928479476e+00
3.528509154687602123e-03,-3.224046441303800954e-04,8.990823971938624481e+00
3.527998768226523266e-03,-3.279425264633950262e-04,8.991520170547754987e+00
3.527479649720541288e-03,-3.334800295047801689e-04,8.992146749295972796e+00
3.526951802549552380e-03,-3.390170965652386037e-04,8.992710670169369536e+00
3.526415229965750627e-03,-3.445536752621584107e-04,8.993218198955425180e+00
3.525869935102488549e-03,-3.500897170889674041e-04,8.993674974862877036e+00
3.525315920982851400e-03,-3.556251770275682070e-04,8.994086073179582641e+00
3.524753190527921392e-03,-3.611600131995454789e-04,8.994456061664617863e+00
3.524181746564701481e-03,-3.666941865522677026e-04,8.994789051301149030e+00
3.523601591833685695e-03,-3.722276605763934838e-04,8.995088741974027968e+00
3.523012728996073421e-03,-3.777604010516413748e-04,8.995358463579616881e+00
3.522415160640615921e-03,-3.832923758179968151e-04,8.995601213024647436e+00
3.521808889290098561e-03,-3.888235545698106471e-04,8.995819687525175468e+00
3.521193917407468288e-03,-3.943539086705015375e-04,8.996016314575649986e+00
3.520570247401608090e-03,-3.998834109857997746e-04,8.996193278921079894e+00
3.519937881632761913e-03,-4.054120357336781291e-04,8.996352546831964503e+00
3.519296822417636479e-03,-4.109397583493014090e-04,8.996495887951761361e+00
3.518647072034183053e-03,-4.164665553634909196e-04,8.996624894959579066e+00
3.517988632726060019e-03,-4.219924042933535097e-04,8.996741001266613580e+00
3.517321506706820936e-03,-4.275172835438571014e-04,8.996845496942945886e+00
3.516645696163805956e-03,-4.330411723192578786e-04,8.996939543051643895e+00
3.515961203261780410e-03,-4.385640505433941339e-04,8.997024184549472281e+00
3.515268030146314476e-03,-4.440858987879587054e-04,8.997100361897517828e+00
3.514566178946926939e-03,-4.496066982079529521e-04,8.997168921510759532e+00
3.513855651780008627e-03,-4.551264304836032787e-04,8.997230625162675466e+00
3.513136450751533791e-03,-4.606450777680924538e-04,8.997286158449401938e+00
3.512408577959568942e-03,-4.661626226405269193e-04,8.997336138407455053e+00
3.511672035496604324e-03,-4.716790480636119773e-04,8.997381120369700724e+00
3.510926825451704536e-03,-4.771943373455684299e-04,8.997421604135723783e+00
3.510172949912503896e-03,-4.827084741058627914e-04,8.997458039525145779e+00
3.509410410967044817e-03,-4.882214422443703020e-04,8.997490831375623443e+00
3.508639210705481303e-03,-4.937332259136290556e-04,8.997520344041054940e+00
3.507859351221639770e-03,-4.992438094938729922e-04,8.997546905439941511e+00
3.507070834614475774e-03,-5.047531775705682046e-04,8.997570810698940491e+00
3.506273662989398045e-03,-5.102613149142006454e-04,8.997592325432041349e+00
3.505467838459502741e-03,-5.157682064620902618e-04,8.997611688691829812e+00
3.504653363146700146e-03,-5.212738373020287582e-04,8.997629115625640495e+00
3.503830239182757246e-03,-5.267781926575593838e-04,8.997644799866069576e+00
3.502998468710249655e-03,-5.322812578747319933e-04,8.997658915682453795e+00
3.502158053883445456e-03,-5.377830184101891828e-04,8.997671619917200658e+00
3.501308996869111415e-03,-5.432834598204467833e-04,8.997683053728474434e+00
3.500451299847250237e-03,-5.487825677522516167e-04,8.997693344158619766e+00
3.499584965011784485e-03,-5.542803279339082040e-04,8.997702605545752519e+00
3.498709994571181509e-03,-5.597767261674761958e-04,8.997710940794169332e+00
3.497826390749022001e-03,-5.652717483217528736e-04,8.997718442517745885e+00
3.496934155784523889e-03,-5.707653803259616840e-04,8.997725194068962651e+00
3.496033291933026751e-03,-5.762576081640756812e-04,8.997731270465060049e+00
3.495123801466429835e-03,-5.817484178697129946e-04,8.997736739221545932e+00
3.494205686673589745e-03,-5.872377955215458837e-04,8.997741661102384825e+00
3.493278949860696876e-03,-5.927257272391741553e-04,8.997746090795139651e+00
3.492343593351603277e-03,-5.982121991794139403e-04,8.997750077518618994e+00
3.491399619488137068e-03,-6.036971975329619286e-04,8.997753665569749870e+00
3.490447030630378696e-03,-6.091807085213968992e-04,8.997756894815768902e+00
3.489485829156920710e-03,-6.146627183944852616e-04,8.997759801137183544e+00
3.488516017465098477e-03,-6.201432134277580803e-04,8.997762416826459386e+00
3.487537597971207895e-03,-6.256221799203369243e-04,8.997764770946806934e+00
3.486550573110696206e-03,-6.310996041929778583e-04,8.997766889655119726e+00
3.485554945338341544e-03,-6.365754725863165524e-04,8.997768796492600529e+00
3.484550717128412096e-03,-6.420497714592913107e-04,8.997770512646333430e+00
3.483537890974817020e-03,-6.475224871877288376e-04,8.997772057184691974e+00
3.482516469391236553e-03,-6.529936061630729023e-04,8.997773447269215907e+00
3.481486454911245608e-03,-6.584631147912458184e-04,8.997774698345287092e+00
3.480447850088420458e-03,-6.639309994916252821e-04,8.997775824313752224e+00
3.479400657496445858e-03,-6.693972466961288720e-04,8.997776837685369955e+00
3.478344879729198310e-03,-6.748618428483918984e-04,8.997777749719826801e+00
3.477280519400832368e-03,-6.803247744030322059e-04,8.997778570550835298e+00
3.476207579145853925e-03,-6.857860278249913039e-04,8.997779309298746142e+00
3.475126061619188307e-03,-6.912455895889449940e-04,8.997779974171864481e+00
3.474035969496239249e-03,-6.967034461787757977e-04,8.997780572557671164e+00
3.472937305472945709e-03,-7.021595840871030624e-04,8.997781111104895757e+00
3.471830072265828706e-03,-7.076139898148616414e-04,8.997781595797398779e+00
3.470714272612038589e-03,-7.130666498709270842e-04,8.997782032020653631e+00
3.469589909269390603e-03,-7.185175507717818117e-04,8.997782424621579622e+00
3.468456985016404783e-03,-7.239666790412170681e-04,8.997782777962413547e+00
3.467315502652335013e-03,-7.294140212100701107e-04,8.997783095969165146e+00
3.466165464997197215e-03,-7.348595638159879624e-04,8.997783382175240874e+00
3.465006874891794937e-03,-7.403032934032208710e-04,8.997783639760712049e+00
3.463839735197742336e-03,-7.457451965224384284e-04,8.997783871587634152e+00
3.462664048797482828e-03,-7.511852597305683499e-04,8.997784080231863157e+00
3.461479818594304699e-03,-7.566234695906530342e-04,8.997784268011670861e+00
3.460287047512358022e-03,-7.620598126717259644e-04,8.997784437013496728e+00
3.459085738496667228e-03,-7.674942755487019867e-04,8.997784589115140008e+00
3.457875894513139786e-03,-7.729268448022827680e-04,8.997784726006619493e+00
3.456657518548578775e-03,-7.783575070188753723e-04,8.997784849208951385e+00
3.455430613610688956e-03,-7.837862487905210285e-04,8.997784960091049555e+00
3.454195182728081112e-03,-7.892130567148358247e-04,8.997785059884938264e+00
3.452951228950281587e-03,-7.946379173949594255e-04,8.997785149699437213e+00
3.451698755347730983e-03,-8.000608174395134383e-04,8.997785230532487688e+00
3.450437765011791537e-03,-8.054817434625654183e-04,8.997785303282231695e+00
3.449168261054744080e-03,-8.109006820836023050e-04,8.997785368757002189e+00
3.447890246609794113e-03,-8.163176199275071123e-04,8.997785427684293680e+00
3.446603724831068770e-03,-8.217325436245437494e-04,8.997785480718857087e+00
3.445308698893614213e-03,-8.271454398103447693e-04,8.997785528449965042e+00
3.444005171993399974e-03,-8.325562951259044301e-04,8.997785571407961314e+00
3.442693147347310276e-03,-8.379650962175756593e-04,8.997785610070158313e+00
3.441372628193146207e-03,-8.433718297370712460e-04,8.997785644866135968e+00
3.440043617789621377e-03,-8.487764823414664433e-04,8.997785676182514791e+00
3.438706119416355417e-03,-8.541790406932066662e-04,8.997785704367256443e+00
3.437360136373875281e-03,-8.595794914601163818e-04,8.997785729733523752e+00
3.436005671983604834e-03,-8.649778213154107106e-04,8.997785752563165929e+00
3.434642729587864419e-03,-8.703740169377096290e-04,8.997785773109841401e+00
3.433271312549862186e-03,-8.757680650110530405e-04,8.997785791601849326e+00
3.431891424253692355e-03,-8.811599522249186642e-04,8.997785808244657346e+00
3.430503068104325676e-03,-8.865496652742406837e-04,8.997785823223185986e+00
3.429106247527604224e-03,-8.919371908594304552e-04,8.997785836703860340e+00
3.427700965970236630e-03,-8.973225156863975406e-04,8.997785848836468148e+00
3.426287226899790272e-03,-9.027056264665719344e-04,8.997785859755813576e+00
3.424865033804682605e-03,-9.080865099169298672e-04,8.997785869583225349e+00
3.423434390194177255e-03,-9.134651527600152728e-04,8.997785878427896122e+00
3.421995299598376214e-03,-9.188415417239681948e-04,8.997785886388099286e+00
3.420547765568208564e-03,-9.242156635425482049e-04,8.997785893552283198e+00
3.419091791675428742e-03,-9.295875049551636767e-04,8.997785900000048187e+00
3.417627381512603098e-03,-9.349570527068971557e-04,8.997785905803036499e+00
3.416154538693105987e-03,-9.403242935485341993e-04,8.997785911025726335e+00
3.414673266851110667e-03,-9.456892142365912407e-04,8.997785915726147721e+00
3.413183569641580189e-03,-9.510518015333446458e-04,8.997785919956525547e+00
3.411685450740258724e-03,-9.564120422068602030e-04,8.997785923763865767e+00
3.410178913843665057e-03,-9.617699230310218549e-04,8.997785927190472322e+00
3.408663962669083482e-03,-9.671254307855616222e-04,8.997785930274417865e+00
3.407140600954553823e-03,-9.724785522560902866e-04,8.997785933049968321e+00
3.405608832458862333e-03,-9.778292742341270979e-04,8.997785935547964797e+00
3.404068660961537783e-03,-9.831775835171304573e-04,8.997785937796162870e+00
3.402520090262833689e-03,-9.885234669085285995e-04,8.997785939819538115e+00
3.400963124183728741e-03,-9.938669112177500597e-04,8.997785941640577434e+00
3.399397766565910757e-03,-9.992079032602560907e-04,8.997785943279513532e+00
3.397824021271771047e-03,-1.004546429857570153e-03,8.997785944754554066e+00
3.396241892184394002e-03,-1.009882477837309792e-03,8.997785946082093034e+00
3.394651383207548424e-03,-1.015216034033218726e-03,8.997785947276875973e+00
3.393052498265675815e-03,-1.020547085285197645e-03,8.997785948352181151e+00
3.391445241303885170e-03,-1.025875618439335644e-03,8.997785949319956345e+00
3.389829616287939103e-03,-1.031201620347942539e-03,8.997785950190953841e+00
3.388205627204246475e-03,-1.036525077869579871e-03,8.997785950974851232e+00
3.386573278059851980e-03,-1.041845977869093436e-03,8.997785951680357996e+00
3.384932572882427479e-03,-1.047164307217644070e-03,8.997785952315316749e+00
3.383283515720260717e-03,-1.052480052792740834e-03,8.997785952886777849e+00
3.381626110642246656e-03,-1.057793201478271798e-03,8.997785953401091774e+00
3.379960361737875760e-03,-1.063103740164536353e-03,8.997785953863976616e+00
3.378286273117226627e-03,-1.068411655748278174e-03,8.997785954280571374e+00
3.376603848910953842e-03,-1.073716935132714920e-03,8.997785954655508789e+00
3.374913093270278438e-03,-1.079019565227572284e-03,8.997785954992950863e+00
3.373214010366977923e-03,-1.084319532949115433e-03,8.997785955296649263e+00
3.371506604393376301e-03,-1.089616825220180232e-03,8.997785955569977290e+00
3.369790879562332368e-03,-1.094911428970206857e-03,8.997785955815972514e+00
3.368066840107231466e-03,-1.100203331135270798e-03,8.997785956037368749e+00
3.366334490281973780e-03,-1.105492518658114523e-03,8.997785956236626248e+00
3.364593834360963924e-03,-1.110778978488180220e-03,8.997785956415956576e+00
3.362844876639100103e-03,-1.116062697581642321e-03,8.997785956577352806e+00
3.361087621431765871e-03,-1.121343662901438509e-03,8.997785956722610834e+00
3.359322073074814952e-03,-1.126621861417301598e-03,8.997785956853343592e+00
3.357548235924566037e-03,-1.131897280105793359e-03,8.997785956971000587e+00
3.355766114357787606e-03,-1.137169905950334656e-03,8.997785957076894547e+00
3.353975712771690553e-03,-1.142439725941238413e-03,8.997785957172197868e+00
3.352177035583913008e-03,-1.147706727075741484e-03,8.997785957257971035e+00
3.350370087232514265e-03,-1.152970896358036313e-03,8.997785957335166174e+00
3.348554872175961775e-03,-1.158232220799303462e-03,8.997785957404643042e+00
3.346731394893119431e-03,-1.163490687417743268e-03,8.997785957467170803e+00
3.344899659883238032e-03,-1.168746283238607936e-03,8.997785957523447564e+00
3.343059671665940969e-03,-1.173998995294233414e-03,8.997785957574096827e+00
3.341211434781218587e-03,-1.179248810624071919e-03,8.997785957619679920e+00
3.339354953789413008e-03,-1.184495716274722513e-03,8.997785957660704881e+00
3.337490233271205985e-03,-1.189739699299964711e-03,8.997785957697628234e+00
3.335617277827611100e-03,-1.194980746760789057e-03,8.997785957730858541e+00
3.333736092079961615e-03,-1.200218845725430084e-03,8.997785957760765285e+00
3.331846680669896168e-03,-1.205453983269396886e-03,8.997785957787682420e+00
3.329949048259349658e-03,-1.210686146475506517e-03,8.997785957811906599e+00
3.328043199530542409e-03,-1.215915322433914559e-03,8.997785957833709602e+00
3.326129139185966723e-03,-1.221141498242148083e-03,8.997785957853331240e+00
3.324206871948377339e-03,-1.226364661005136230e-03,8.997785957870991780e+00
3.322276402560777556e-03,-1.231584797835243161e-03,8.997785957886884844e+00
3.320337735786409259e-03,-1.236801895852298857e-03,8.997785957901189846e+00
3.318390876408739473e-03,-1.242015942183631637e-03,8.997785957914064880e+00
3.316435829231451689e-03,-1.247226923964100042e-03,8.997785957925650280e+00
3.314472599078429824e-03,-1.252434828336123403e-03,8.997785957936079271e+00
3.312501190793749970e-03,-1.257639642449714804e-03,8.997785957945463764e+00
3.310521609241665660e-03,-1.262841353462512304e-03,8.997785957953910341e+00
3.308533859306598320e-03,-1.268039948539810384e-03,8.997785957961511372e+00
3.306537945893122960e-03,-1.273235414854592034e-03,8.997785957968353898e+00
3.304533873925957765e-03,-1.278427739587560197e-03,8.997785957974510751e+00
3.302521648349951953e-03,-1.283616909927168996e-03,8.997785957980052984e+00
3.300501274130071896e-03,-1.288802913069656692e-03,8.997785957985039218e+00
3.298472756251388978e-03,-1.293985736219075387e-03,8.997785957989529848e+00
3.296436099719071353e-03,-1.299165366587323560e-03,8.997785957993569284e+00
3.294391309558365732e-03,-1.304341791394178366e-03,8.997785957997205486e+00
3.292338390814588713e-03,-1.309514997867325999e-03,8.997785958000477535e+00
3.290277348553113761e-03,-1.314684973242392918e-03,8.997785958003422735e+00
3.288208187859356906e-03,-1.319851704762979670e-03,8.997785958006074836e+00
3.286130913838767199e-03,-1.325015179680688647e-03,8.997785958008460483e+00
3.284045531616811963e-03,-1.330175385255159002e-03,8.997785958010606322e+00
3.281952046338964223e-03,-1.335332308754096564e-03,8.997785958012538998e+00
3.279850463170690556e-03,-1.340485937453304638e-03,8.997785958014278052e+00
3.277740787297439388e-03,-1.345636258636716959e-03,8.997785958015843022e+00
3.275623023924625378e-03,-1.350783259596427836e-03,8.997785958017253449e+00
3.273497178277620309e-03,-1.355926927632723376e-03,8.997785958018519992e+00
3.271363255601735746e-03,-1.361067250054115094e-03,8.997785958019662189e+00
3.269221261162214790e-03,-1.366204214177367234e-03,8.997785958020688923e+00
3.267071200244215171e-03,-1.371337807327532117e-03,8.997785958021612629e+00
3.264913078152797965e-03,-1.376468016837978543e-03,8.997785958022443964e+00
3.262746900212916759e-03,-1.381594830050424322e-03,8.997785958023193587e+00
3.260572671769398998e-03,-1.386718234314968145e-03,8.997785958023868602e+00
3.258390398186937313e-03,-1.391838216990118424e-03,8.997785958024474340e+00
3.256200084850074776e-03,-1.396954765442827125e-03,8.997785958025019681e+00
3.254001737163191889e-03,-1.402067867048519901e-03,8.997785958025511732e+00
3.251795360550493574e-03,-1.407177509191126236e-03,8.997785958025952269e+00
3.249580960455994861e-03,-1.412283679263112192e-03,8.997785958026350173e+00
3.247358542343507012e-03,-1.417386364665510975e-03,8.997785958026708997e+00
3.245128111696625808e-03,-1.422485552807953302e-03,8.997785958027030517e+00
3.242889674018718110e-03,-1.427581231108699484e-03,8.997785958027320063e+00
3.240643234832905808e-03,-1.432673386994669576e-03,8.997785958027581188e+00
3.238388799682054547e-03,-1.437762007901475462e-03,8.997785958027817443e+00
3.236126374128758549e-03,-1.442847081273450566e-03,8.997785958028028830e+00
3.233855963755327603e-03,-1.447928594563681727e-03,8.997785958028218900e+00
3.231577574163774485e-03,-1.453006535234040424e-03,8.997785958028391207e+00
3.229291210975799350e-03,-1.458080890755212916e-03,8.997785958028545750e+00
3.226996879832774983e-03,-1.463151648606730382e-03,8.997785958028684306e+00
3.224694586395735960e-03,-1.468218796277003402e-03,8.997785958028806874e+00
3.222384336345362164e-03,-1.473282321263347759e-03,8.997785958028920561e+00
3.220066135381966649e-03,-1.478342211072018915e-03,8.997785958029021813e+00
3.217739989225479151e-03,-1.483398453218242154e-03,8.997785958029112408e+00
3.215405903615433953e-03,-1.488451035226242289e-03,8.997785958029194120e+00
3.213063884310956003e-03,-1.493499944629275754e-03,8.997785958029266951e+00
3.210713937090744867e-03,-1.498545168969660094e-03,8.997785958029334452e+00
3.208356067753061289e-03,-1.503586695798806057e-03,8.997785958029394848e+00
3.205990282115713744e-03,-1.508624512677247519e-03,8.997785958029448139e+00
3.203616586016043693e-03,-1.513658607174672059e-03,8.997785958029496101e+00
3.201234985310909536e-03,-1.518688966869951315e-03,8.997785958029538733e+00
3.198845485876674472e-03,-1.523715579351173728e-03,8.997785958029579589e+00
3.196448093609190449e-03,-1.528738432215671862e-03,8.997785958029613340e+00
3.194042814423785157e-03,-1.533757513070056235e-03,8.997785958029645315e+00
3.191629654255245981e-03,-1.538772809530243287e-03,8.997785958029673736e+00
3.189208619057805252e-03,-1.543784309221487693e-03,8.997785958029700382e+00
3.186779714805126808e-03,-1.548791999778412285e-03,8.997785958029723474e+00
3.184342947490290381e-03,-1.553795868845037976e-03,8.997785958029744791e+00
3.181898323125777715e-03,-1.558795904074816068e-03,8.997785958029762554e+00
3.179445847743455657e-03,-1.563792093130655795e-03,8.997785958029780318e+00
3.176985527394563576e-03,-1.568784423684957928e-03,8.997785958029794529e+00
3.174517368149697323e-03,-1.573772883419642752e-03,8.997785958029808739e+00
3.172041376098794913e-03,-1.578757460026181938e-03,8.997785958029822950e+00
3.169557557351120481e-03,-1.583738141205628036e-03,8.997785958029833608e+00
3.167065918035249540e-03,-1.588714914668645480e-03,8.997785958029842490e+00
3.164566464299054232e-03,-1.593687768135540733e-03,8.997785958029853148e+00
3.162059202309689017e-03,-1.598656689336291990e-03,8.997785958029860254e+00
3.159544138253572460e-03,-1.603621666010579972e-03,8.997785958029867359e+00
3.157021278336376389e-03,-1.608582685907818501e-03,8.997785958029872688e+00
3.154490628783005943e-03,-1.613539736787183987e-03,8.997785958029879794e+00
3.151952195837587432e-03,-1.618492806417646005e-03,8.997785958029883346e+00
3.149405985763452289e-03,-1.623441882577998305e-03,8.997785958029888675e+00
3.146852004843120592e-03,-1.628386953056886561e-03,8.997785958029894005e+00
3.144290259378285882e-03,-1.633328005652841339e-03,8.997785958029897557e+00
3.141720755689801289e-03,-1.638265028174306715e-03,8.997785958029899334e+00
3.139143500117661315e-03,-1.643198008439670198e-03,8.997785958029902886e+00
3.136558499020987521e-03,-1.648126934277293091e-03,8.997785958029906439e+00
3.133965758778013352e-03,-1.653051793525541283e-03,8.997785958029909992e+00
3.131365285786068091e-03,-1.657972574032813865e-03,8.997785958029911768e+00
3.128757086461559939e-03,-1.662889263657574366e-03,8.997785958029913544e+00
3.126141167239961279e-03,-1.667801850268379581e-03,8.997785958029913544e+00
3.123517534575793054e-03,-1.672710321743910589e-03,8.997785958029915321e+00
3.120886194942608296e-03,-1.677614665973002238e-03,8.997785958029917097e+00
3.118247154832975206e-03,-1.682514870854671983e-03,8.997785958029918874e+00
3.115600420758463281e-03,-1.687410924298151770e-03,8.997785958029920650e+00
3.112945999249626828e-03,-1.692302814222916649e-03,8.997785958029922426e+00
3.110283896855985022e-03,-1.697190528558714055e-03,8.997785958029924203e+00
3.107614120146012359e-03,-1.702074055245595026e-03,8.997785958029924203e+00
3.104936675707116976e-03,-1.706953382233942834e-03,8.997785958029924203e+00
3.102251570145626771e-03,-1.711828497484503119e-03,8.997785958029924203e+00
3.099558810086772923e-03,-1.716699388968414034e-03,8.997785958029924203e+00
3.096858402174673414e-03,-1.721566044667234433e-03,8.997785958029924203e+00
3.094150353072316114e-03,-1.726428452572975527e-03,8.997785958029924203e+00
3.091434669461543168e-03,-1.731286600688129295e-03,8.997785958029924203e+00
3.088711358043033650e-03,-1.736140477025697754e-03,8.997785958029924203e+00
3.085980425536287951e-03,-1.740990069609223969e-03,8.997785958029924203e+00
3.083241878679610429e-03,-1.745835366472819807e-03,8.997785958029924203e+00
3.080495724230093366e-03,-1.750676355661197597e-03,8.997785958029924203e+00
3.077741968963599618e-03,-1.755513025229697233e-03,8.997785958029924203e+00
3.074980619674746573e-03,-1.760345363244317403e-03,8.997785958029924203e+00
3.072211683176889665e-03,-1.765173357781744858e-03,8.997785958029924203e+00
3.069435166302104164e-03,-1.769996996929382605e-03,8.997785958029924203e+00
3.066651075901169130e-03,-1.774816268785380478e-03,8.997785958029924203e+00
3.063859418843551362e-03,-1.779631161458664198e-03,8.997785958029924203e+00
3.061060202017386322e-03,-1.784441663068965511e-03,8.997785958029924203e+00
3.058253432329464689e-03,-1.789247761746849078e-03,8.997785958029924203e+00
3.055439116705209804e-03,-1.794049445633744350e-03,8.997785958029924203e+00
3.052617262088667700e-03,-1.798846702881973323e-03,8.997785958029924203e+00
3.049787875442482379e-03,-1.803639521654781547e-03,8.997785958029924203e+00
3.046950963747884975e-03,-1.808427890126364582e-03,8.997785958029924203e+00
3.044106534004672928e-03,-1.813211796481898784e-03,8.997785958029924203e+00
3.041254593231193949e-03,-1.817991228917571886e-03,8.997785958029924203e+00
3.038395148464328663e-03,-1.822766175640608581e-03,8.997785958029924203e+00
3.035528206759471968e-03,-1.827536624869302182e-03,8.997785958029924203e+00
3.032653775190518718e-03,-1.832302564833044331e-03,8.997785958029924203e+00
3.029771860849841611e-03,-1.837063983772351666e-03,8.997785958029924203e+00
3.026882470848279039e-03,-1.841820869938896399e-03,8.997785958029924203e+00
3.023985612315113411e-03,-1.846573211595534288e-03,8.997785958029924203e+00
3.021081292398054667e-03,-1.851320997016334775e-03,8.997785958029924203e+00
3.018169518263224237e-03,-1.856064214486610048e-03,8.997785958029924203e+00
3.015250297095134219e-03,-1.860802852302941707e-03,8.997785958029924203e+00
3.012323636096673508e-03,-1.865536898773212209e-03,8.997785958029924203e+00
3.009389542489086539e-03,-1.870266342216632622e-03,8.997785958029924203e+00
3.006448023511958979e-03,-1.874991170963771249e-03,8.997785958029924203e+00
3.003499086423195175e-03,-1.879711373356583119e-03,8.997785958029924203e+00
3.000542738499004710e-03,-1.884426937748437305e-03,8.997785958029924203e+00
2.997578987033881585e-03,-1.889137852504148589e-03,8.997785958029924203e+00
2.994607839340589044e-03,-1.893844106000001741e-03,8.997785958029924203e+00
2.991629302750138317e-03,-1.898545686623785787e-03,8.997785958029924203e+00
2.988643384611771280e-03,-1.903242582774816120e-03,8.997785958029924203e+00
2.985650092292945704e-03,-1.907934782863969416e-03,8.997785958029924203e+00
2.982649433179311842e-03,-1.912622275313707919e-03,8.997785958029924203e+00
2.979641414674698112e-03,-1.917305048558111315e-03,8.997785958029924203e+00
2.976626044201091583e-03,-1.921983091042900153e-03,8.997785958029924203e+00
2.973603329198618028e-03,-1.926656391225470537e-03,8.997785958029924203e+00
2.970573277125526743e-03,-1.931324937574919283e-03,8.997785958029924203e+00
2.967535895458170599e-03,-1.935988718572071452e-03,8.997785958029924203e+00
2.964491191690986089e-03,-1.940647722709511799e-03,8.997785958029924203e+00
2.961439173336477722e-03,-1.945301938491610138e-03,8.997785958029924203e+00
2.958379847925197634e-03,-1.949951354434552569e-03,8.997785958029924203e+00
2.955313223005725642e-03,-1.954595959066366632e-03,8.997785958029924203e+00
2.952239306144654931e-03,-1.959235740926952313e-03,8.997785958029924203e+00
2.949158104926570372e-03,-1.963870688568108720e-03,8.997785958029924203e+00
2.946069626954029002e-03,-1.968500790553564216e-03,8.997785958029924203e+00
2.942973879847543116e-03,-1.973126035459002014e-03,8.997785958029924203e+00
2.939870871245561183e-03,-1.977746411872089664e-03,8.997785958029924203e+00
2.936760608804447892e-03,-1.982361908392508108e-03,8.997785958029924203e+00
2.933643100198467680e-03,-1.986972513631978139e-03,8.997785958029924203e+00
2.930518353119762609e-03,-1.991578216214290320e-03,8.997785958029924203e+00
2.927386375278335454e-03,-1.996179004775330574e-03,8.997785958029924203e+00
2.924247174402029321e-03,-2.000774867963110975e-03,8.997785958029924203e+00
2.921100758236512031e-03,-2.005365794437795769e-03,8.997785958029924203e+00
2.917947134545251838e-03,-2.009951772871730862e-03,8.997785958029924203e+00
2.914786311109501381e-03,-2.014532791949468979e-03,8.997785958029924203e+00
2.911618295728279036e-03,-2.019108840367802183e-03,8.997785958029924203e+00
2.908443096218346798e-03,-2.023679906835785299e-03,8.997785958029924203e+00
2.905260720414195533e-03,-2.028245980074766270e-03,8.997785958029924203e+00
2.902071176168018966e-03,-2.032807048818413911e-03,8.997785958029924203e+00
2.898874471349701960e-03,-2.037363101812743934e-03,8.997785958029924203e+00
2.895670613846795804e-03,-2.041914127816147999e-03,8.997785958029924203e+00
2.892459611564499565e-03,-2.046460115599422341e-03,8.997785958029924203e+00
2.889241472425643168e-03,-2.051001053945794659e-03,8.997785958029924203e+00
2.886016204370664417e-03,-2.055536931650950132e-03,8.997785958029924203e+00
2.882783815357591647e-03,-2.060067737523061347e-03,8.997785958029924203e+00
2.879544313362023770e-03,-2.064593460382815621e-03,8.997785958029924203e+00
2.876297706377109464e-03,-2.069114089063441887e-03,8.997785958029924203e+00
2.873044002413529391e-03,-2.073629612410738017e-03,8.997785958029924203e+00
2.869783209499473641e-03,-2.078140019283098577e-03,8.997785958029924203e+00
2.866515335680625692e-03,-2.082645298551543019e-03,8.997785958029924203e+00
2.863240389020139422e-03,-2.087145439099743430e-03,8.997785958029924203e+00
2.859958377598618290e-03,-2.091640429824050129e-03,8.997785958029924203e+00
2.856669309514101029e-03,-2.096130259633520281e-03,8.997785958029924203e+00
2.853373192882036058e-03,-2.100614917449943921e-03,8.997785958029924203e+00
2.850070035835262829e-03,-2.105094392207875181e-03,8.997785958029924203e+00
2.846759846523992752e-03,-2.109568672854655273e-03,8.997785958029924203e+00
2.843442633115790107e-03,-2.114037748350440678e-03,8.997785958029924203e+00
2.840118403795548196e-03,-2.118501607668232638e-03,8.997785958029924203e+00
2.836787166765472861e-03,-2.122960239793901874e-03,8.997785958029924203e+00
2.833448930245060365e-03,-2.127413633726216342e-03,8.997785958029924203e+00
2.830103702471077013e-03,-2.131861778476869425e-03,8.997785958029924203e+00
2.826751491697540499e-03,-2.136304663070505948e-03,8.997785958029924203e+00
2.823392306195696925e-03,-2.140742276544750373e-03,8.997785958029924203e+00
2.820026154254003450e-03,-2.145174607950232817e-03,8.997785958029924203e+00
2.816653044178104442e-03,-2.149601646350615507e-03,8.997785958029924203e+00
2.813272984290814127e-03,-2.154023380822620969e-03,8.997785958029924203e+00
2.809885982932094906e-03,-2.158439800456059786e-03,8.997785958029924203e+00
2.806492048459034803e-03,-2.162850894353855313e-03,8.997785958029924203e+00
2.803091189245830121e-03,-2.167256651632071436e-03,8.997785958029924203e+00
2.799683413683762886e-03,-2.171657061419940329e-03,8.997785958029924203e+00
2.796268730181181335e-03,-2.176052112859888036e-03,8.997785958029924203e+00
2.792847147163476495e-03,-2.180441795107562232e-03,8.997785958029924203e+00
2.789418673073064837e-03,-2.184826097331858674e-03,8.997785958029924203e+00
2.785983316369365723e-03,-2.189205008714946790e-03,8.997785958029924203e+00
2.782541085528779726e-03,-2.193578518452298735e-03,8.997785958029924203e+00
2.779091989044669107e-03,-2.197946615752712808e-03,8.997785958029924203e+00
2.775636035427337008e-03,-2.202309289838344682e-03,8.997785958029924203e+00
2.772173233204005324e-03,-2.206666529944728648e-03,8.997785958029924203e+00
2.768703590918794762e-03,-2.211018325320808411e-03,8.997785958029924203e+00
2.765227117132701851e-03,-2.215364665228960941e-03,8.997785958029924203e+00
2.761743820423580298e-03,-2.219705538945025529e-03,8.997785958029924203e+00
2.758253709386119298e-03,-2.224040935758326339e-03,8.997785958029924203e+00
2.754756792631819686e-03,-2.228370844971704068e-03,8.997785958029924203e+00
2.751253078788977024e-03,-2.232695255901537626e-03,8.997785958029924203e+00
2.747742576502656443e-03,-2.237014157877772764e-03,8.997785958029924203e+00
2.744225294434673133e-03,-2.241327540243948958e-03,8.997785958029924203e+00
2.740701241263571522e-03,-2.245635392357223266e-03,8.997785958029924203e+00
2.737170425684601425e-03,-2.249937703588398077e-03,8.997785958029924203e+00
2.733632856409701131e-03,-2.254234463321949742e-03,8.997785958029924203e+00
2.730088542167469212e-03,-2.258525660956050250e-03,8.997785958029924203e+00
2.726537491703149782e-03,-2.262811285902594557e-03,8.997785958029924203e+00
2.722979713778606470e-03,-2.267091327587231805e-03,8.997785958029924203e+00
2.719415217172303344e-03,-2.271365775449381806e-03,8.997785958029924203e+00
2.715844010679281054e-03,-2.275634618942271471e-03,8.997785958029924203e+00
2.712266103111135584e-03,-2.279897847532952587e-03,8.997785958029924203e+00
2.708681503296000038e-03,-2.284155450702333914e-03,8.997785958029924203e+00
2.705090220078516881e-03,-2.288407417945200265e-03,8.997785958029924203e+00
2.701492262319820162e-03,-2.292653738770248067e-03,8.997785958029924203e+00
2.697887638897514262e-03,-2.296894402700100542e-03,8.997785958029924203e+00
2.694276358705648741e-03,-2.301129399271342833e-03,8.997785958029924203e+00
2.690658430654697519e-03,-2.305358718034540219e-03,8.997785958029924203e+00
2.687033863671539364e-03,-2.309582348554269342e-03,8.997785958029924203e+00
2.683402666699433170e-03,-2.313800280409143359e-03,8.997785958029924203e+00
2.679764848697995406e-03,-2.318012503191832756e-03,8.997785958029924203e+00
2.676120418643181901e-03,-2.322219006509097881e-03,8.997785958029924203e+00
2.672469385527259655e-03,-2.326419779981808884e-03,8.997785958029924203e+00
2.668811758358791662e-03,-2.330614813244975651e-03,8.997785958029924203e+00
2.665147546162608284e-03,-2.334804095947770781e-03,8.997785958029924203e+00
2.661476757979789470e-03,-2.338987617753554311e-03,8.997785958029924203e+00
2.657799402867640041e-03,-2.343165368339903635e-03,8.997785958029924203e+00
2.654115489899667567e-03,-2.347337337398633025e-03,8.997785958029924203e+00
2.650425028165562420e-03,-2.351503514635824420e-03,8.997785958029924203e+00
2.646728026771170885e-03,-2.355663889771850410e-03,8.997785958029924203e+00
2.643024494838476079e-03,-2.359818452541397223e-03,8.997785958029924203e+00
2.639314441505576266e-03,-2.363967192693495079e-03,8.997785958029924203e+00
2.635597875926658836e-03,-2.368110099991540748e-03,8.997785958029924203e+00
2.631874807271979057e-03,-2.372247164213320530e-03,8.997785958029924203e+00
2.628145244727839256e-03,-2.376378375151041479e-03,8.997785958029924203e+00
2.624409197496564532e-03,-2.380503722611350056e-03,8.997785958029924203e+00
2.620666674796479773e-03,-2.384623196415362485e-03,8.997785958029924203e+00
2.616917685861887971e-03,-2.388736786398685565e-03,8.997785958029924203e+00
2.613162239943045938e-03,-2.392844482411445733e-03,8.997785958029924203e+00
2.609400346306144352e-03,-2.396946274318311615e-03,8.997785958029924203e+00
2.605632014233280006e-03,-2.401042151998518306e-03,8.997785958029924203e+00
2.601857253022439760e-03,-2.405132105345896432e-03,8.997785958029924203e+00
2.598076071987470616e-03,-2.409216124268890799e-03,8.997785958029924203e+00
2.594288480458060205e-03,-2.413294198690592047e-03,8.997785958029924203e+00
2.590494487779715534e-03,-2.417366318548756603e-03,8.997785958029924203e+00
2.586694103313735664e-03,-2.421432473795833134e-03,8.997785958029924203e+00
2.582887336437190897e-03,-2.425492654398988569e-03,8.997785958029924203e+00
2.579074196542901522e-03,-2.429546850340130217e-03,8.997785958029924203e+00
2.575254693039410060e-03,-2.433595051615932651e-03,8.997785958029924203e+00
2.571428835350961749e-03,-2.437637248237861567e-03,8.997785958029924203e+00
2.567596632917480692e-03,-2.441673430232199366e-03,8.997785958029924203e+00
2.563758095194545138e-03,-2.445703587640066842e-03,8.997785958029924203e+00
2.559913231653365359e-03,-2.449727710517452667e-03,8.997785958029924203e+00
2.556062051780759806e-03,-2.453745788935232913e-03,8.997785958029924203e+00
2.552204565079132549e-03,-2.457757812979198368e-03,8.997785958029924203e+00
2.548340781066448131e-03,-2.461763772750079262e-03,8.997785958029924203e+00
2.544470709276208577e-03,-2.465763658363567378e-03,8.997785958029924203e+00
2.540594359257433883e-03,-2.469757459950343379e-03,8.997785958029924203e+00
2.536711740574629486e-03,-2.473745167656097189e-03,8.997785958029924203e+00
2.532822862807772388e-03,-2.477726771641557916e-03,8.997785958029924203e+00
2.528927735552282102e-03,-2.481702262082513370e-03,8.997785958029924203e+00
2.525026368418997660e-03,-2.485671629169836517e-03,8.997785958029924203e+00
2.521118771034154202e-03,-2.489634863109507160e-03,8.997785958029924203e+00
2.517204953039360420e-03,-2.493591954122640567e-03,8.997785958029924203e+00
2.513284924091572971e-03,-2.497542892445507850e-03,8.997785958029924203e+00
2.509358693863073930e-03,-2.501487668329561119e-03,8.997785958029924203e+00
2.505426272041445628e-03,-2.505426272041458638e-03,8.997785958029924203e+00
2.501487668329548542e-03,-2.509358693863087374e-03,8.997785958029924203e+00
2.497542892445494839e-03,-2.513284924091586849e-03,8.997785958029924203e+00
2.493591954122626689e-03,-2.517204953039373864e-03,8.997785958029924203e+00
2.489634863109493716e-03,-2.521118771034167646e-03,8.997785958029924203e+00
2.485671629169822639e-03,-2.525026368419010236e-03,8.997785958029924203e+00
2.481702262082500793e-03,-2.528927735552295112e-03,8.997785958029924203e+00
2.477726771641544905e-03,-2.532822862807785833e-03,8.997785958029924203e+00
2.473745167656084178e-03,-2.536711740574642496e-03,8.997785958029924203e+00
2.469757459950329501e-03,-2.540594359257446460e-03,8.997785958029924203e+00
2.465763658363554368e-03,-2.544470709276222455e-03,8.997785958029924203e+00
2.461763772750065818e-03,-2.548340781066460708e-03,8.997785958029924203e+00
2.457757812979185358e-03,-2.552204565079145560e-03,8.997785958029924203e+00
2.453745788935219468e-03,-2.556062051780773250e-03,8.997785958029924203e+00
2.449727710517439223e-03,-2.559913231653378803e-03,8.997785958029924203e+00
2.445703587640053397e-03,-2.563758095194558582e-03,8.997785958029924203e+00
2.441673430232185488e-03,-2.567596632917493703e-03,8.997785958029924203e+00
2.437637248237848123e-03,-2.571428835350974759e-03,8.997785958029924203e+00
2.433595051615918773e-03,-2.575254693039423070e-03,8.997785958029924203e+00
2.429546850340116772e-03,-2.579074196542914098e-03,8.997785958029924203e+00
2.425492654398974691e-03,-2.582887336437203907e-03,8.997785958029924203e+00
2.421432473795819690e-03,-2.586694103313748241e-03,8.997785958029924203e+00
2.417366318548742725e-03,-2.590494487779727677e-03,8.997785958029924203e+00
2.413294198690578603e-03,-2.594288480458073216e-03,8.997785958029924203e+00
2.409216124268877355e-03,-2.598076071987482760e-03,8.997785958029924203e+00
2.405132105345882555e-03,-2.601857253022452337e-03,8.997785958029924203e+00
2.401042151998504862e-03,-2.605632014233292583e-03,8.997785958029924203e+00
2.396946274318297303e-03,-2.609400346306156495e-03,8.997785958029924203e+00
2.392844482411432289e-03,-2.613162239943058948e-03,8.997785958029924203e+00
2.388736786398671687e-03,-2.616917685861900982e-03,8.997785958029924203e+00
2.384623196415348173e-03,-2.620666674796492783e-03,8.997785958029924203e+00
2.380503722611336179e-03,-2.624409197496577108e-03,8.997785958029924203e+00
2.376378375151027601e-03,-2.628145244727852266e-03,8.997785958029924203e+00
2.372247164213306652e-03,-2.631874807271992068e-03,8.997785958029924203e+00
2.368110099991526437e-03,-2.635597875926670979e-03,8.997785958029924203e+00
2.363967192693481201e-03,-2.639314441505589276e-03,8.997785958029924203e+00
2.359818452541383779e-03,-2.643024494838489089e-03,8.997785958029924203e+00
2.355663889771836533e-03,-2.646728026771182594e-03,8.997785958029924203e+00
2.351503514635810976e-03,-2.650425028165574563e-03,8.997785958029924203e+00
2.347337337398619148e-03,-2.654115489899680578e-03,8.997785958029924203e+00
2.343165368339889323e-03,-2.657799402867652185e-03,8.997785958029924203e+00
2.338987617753539999e-03,-2.661476757979802047e-03,8.997785958029924203e+00
2.334804095947756470e-03,-2.665147546162620860e-03,8.997785958029924203e+00
2.330614813244961340e-03,-2.668811758358803805e-03,8.997785958029924203e+00
2.326419779981795007e-03,-2.672469385527272232e-03,8.997785958029924203e+00
2.322219006509084003e-03,-2.676120418643194044e-03,8.997785958029924203e+00
2.318012503191818879e-03,-2.679764848698007983e-03,8.997785958029924203e+00
2.313800280409129047e-03,-2.683402666699445313e-03,8.997785958029924203e+00
2.309582348554255465e-03,-2.687033863671551941e-03,8.997785958029924203e+00
2.305358718034525908e-03,-2.690658430654709662e-03,8.997785958029924203e+00
2.301129399271328087e-03,-2.694276358705660884e-03,8.997785958029924203e+00
2.296894402700086664e-03,-2.697887638897526839e-03,8.997785958029924203e+00
2.292653738770233755e-03,-2.701492262319832739e-03,8.997785958029924203e+00
2.288407417945186387e-03,-2.705090220078528590e-03,8.997785958029924203e+00
2.284155450702319168e-03,-2.708681503296012181e-03,8.997785958029924203e+00
2.279897847532938709e-03,-2.712266103111148161e-03,8.997785958029924203e+00
2.275634618942256725e-03,-2.715844010679292764e-03,8.997785958029924203e+00
2.271365775449367495e-03,-2.719415217172315487e-03,8.997785958029924203e+00
2.267091327587217060e-03,-2.722979713778619047e-03,8.997785958029924203e+00
2.262811285902580679e-03,-2.726537491703161925e-03,8.997785958029924203e+00
2.258525660956035505e-03,-2.730088542167480922e-03,8.997785958029924203e+00
2.254234463321935431e-03,-2.733632856409712840e-03,8.997785958029924203e+00
2.249937703588383766e-03,-2.737170425684613568e-03,8.997785958029924203e+00
2.245635392357208521e-03,-2.740701241263583231e-03,8.997785958029924203e+00
2.241327540243934213e-03,-2.744225294434685276e-03,8.997785958029924203e+00
2.237014157877758452e-03,-2.747742576502668153e-03,8.997785958029924203e+00
2.232695255901522881e-03,-2.751253078788988733e-03,8.997785958029924203e+00
2.228370844971689756e-03,-2.754756792631831829e-03,8.997785958029924203e+00
2.224040935758312028e-03,-2.758253709386130573e-03,8.997785958029924203e+00
2.219705538945010784e-03,-2.761743820423592441e-03,8.997785958029924203e+00
2.215364665228946629e-03,-2.765227117132713561e-03,8.997785958029924203e+00
2.211018325320793666e-03,-2.768703590918806037e-03,8.997785958029924203e+00
2.206666529944713902e-03,-2.772173233204017033e-03,8.997785958029924203e+00
2.202309289838329937e-03,-2.775636035427348717e-03,8.997785958029924203e+00
2.197946615752698497e-03,-2.779091989044680817e-03,8.997785958029924203e+00
2.193578518452283990e-03,-2.782541085528791001e-03,8.997785958029924203e+00
2.189205008714931611e-03,-2.785983316369377433e-03,8.997785958029924203e+00
2.184826097331843929e-03,-2.789418673073076546e-03,8.997785958029924203e+00
2.180441795107547921e-03,-2.792847147163487771e-03,8.997785958029924203e+00
2.176052112859873291e-03,-2.796268730181193044e-03,8.997785958029924203e+00
2.171657061419925584e-03,-2.799683413683774595e-03,8.997785958029924203e+00
2.167256651632056691e-03,-2.803091189245841396e-03,8.997785958029924203e+00
2.162850894353840567e-03,-2.806492048459046078e-03,8.997785958029924203e+00
2.158439800456045041e-03,-2.809885982932105748e-03,8.997785958029924203e+00
2.154023380822606224e-03,-2.813272984290825403e-03,8.997785958029924203e+00
2.149601646350600762e-03,-2.816653044178116152e-03,8.997785958029924203e+00
2.145174607950218072e-03,-2.820026154254014726e-03,8.997785958029924203e+00
2.140742276544736061e-03,-2.823392306195708201e-03,8.997785958029924203e+00
2.136304663070491203e-03,-2.826751491697551775e-03,8.997785958029924203e+00
2.131861778476854246e-03,-2.830103702471088289e-03,8.997785958029924203e+00
2.127413633726201164e-03,-2.833448930245071207e-03,8.997785958029924203e+00
2.122960239793886695e-03,-2.836787166765484137e-03,8.997785958029924203e+00
2.118501607668217893e-03,-2.840118403795559038e-03,8.997785958029924203e+00
2.114037748350425933e-03,-2.843442633115801383e-03,8.997785958029924203e+00
2.109568672854640094e-03,-2.846759846524004028e-03,8.997785958029924203e+00
2.105094392207860002e-03,-2.850070035835273671e-03,8.997785958029924203e+00
2.100614917449929175e-03,-2.853373192882047334e-03,8.997785958029924203e+00
2.096130259633504668e-03,-2.856669309514112305e-03,8.997785958029924203e+00
2.091640429824034950e-03,-2.859958377598629566e-03,8.997785958029924203e+00
2.087145439099728685e-03,-2.863240389020149830e-03,8.997785958029924203e+00
2.082645298551527840e-03,-2.866515335680636968e-03,8.997785958029924203e+00
2.078140019283083399e-03,-2.869783209499484917e-03,8.997785958029924203e+00
2.073629612410722838e-03,-2.873044002413540233e-03,8.997785958029924203e+00
2.069114089063426708e-03,-2.876297706377120306e-03,8.997785958029924203e+00
2.064593460382800442e-03,-2.879544313362034612e-03,8.997785958029924203e+00
2.060067737523046602e-03,-2.882783815357602489e-03,8.997785958029924203e+00
2.055536931650934519e-03,-2.886016204370675260e-03,8.997785958029924203e+00
2.051001053945779480e-03,-2.889241472425654010e-03,8.997785958029924203e+00
2.046460115599407596e-03,-2.892459611564510407e-03,8.997785958029924203e+00
2.041914127816132386e-03,-2.895670613846806213e-03,8.997785958029924203e+00
2.037363101812728321e-03,-2.898874471349712802e-03,8.997785958029924203e+00
2.032807048818398733e-03,-2.902071176168029808e-03,8.997785958029924203e+00
2.028245980074751091e-03,-2.905260720414205942e-03,8.997785958029924203e+00
2.023679906835770120e-03,-2.908443096218357640e-03,8.997785958029924203e+00
2.019108840367786570e-03,-2.911618295728289445e-03,8.997785958029924203e+00
2.014532791949453366e-03,-2.914786311109512223e-03,8.997785958029924203e+00
2.009951772871715250e-03,-2.917947134545262680e-03,8.997785958029924203e+00
2.005365794437780590e-03,-2.921100758236522439e-03,8.997785958029924203e+00
2.000774867963095796e-03,-2.924247174402040163e-03,8.997785958029924203e+00
1.996179004775314961e-03,-2.927386375278345429e-03,8.997785958029924203e+00
1.991578216214275141e-03,-2.930518353119772584e-03,8.997785958029924203e+00
1.986972513631962960e-03,-2.933643100198478088e-03,8.997785958029924203e+00
1.982361908392492496e-03,-2.936760608804458734e-03,8.997785958029924203e+00
1.977746411872074051e-03,-2.939870871245571157e-03,8.997785958029924203e+00
1.973126035458985968e-03,-2.942973879847553091e-03,8.997785958029924203e+00
1.968500790553548603e-03,-2.946069626954039410e-03,8.997785958029924203e+00
1.963870688568093107e-03,-2.949158104926580780e-03,8.997785958029924203e+00
1.959235740926936267e-03,-2.952239306144665773e-03,8.997785958029924203e+00
1.954595959066350586e-03,-2.955313223005736050e-03,8.997785958029924203e+00
1.949951354434536956e-03,-2.958379847925207608e-03,8.997785958029924203e+00
1.945301938491594959e-03,-2.961439173336488130e-03,8.997785958029924203e+00
1.940647722709496403e-03,-2.964491191690996497e-03,8.997785958029924203e+00
1.935988718572056056e-03,-2.967535895458180573e-03,8.997785958029924203e+00
1.931324937574903453e-03,-2.970573277125537152e-03,8.997785958029924203e+00
1.926656391225454708e-03,-2.973603329198628003e-03,8.997785958029924203e+00
1.921983091042884107e-03,-2.976626044201101124e-03,8.997785958029924203e+00
1.917305048558095269e-03,-2.979641414674708520e-03,8.997785958029924203e+00
1.912622275313692957e-03,-2.982649433179322251e-03,8.997785958029924203e+00
1.907934782863954237e-03,-2.985650092292955679e-03,8.997785958029924203e+00
1.903242582774800941e-03,-2.988643384611780821e-03,8.997785958029924203e+00
1.898545686623771041e-03,-2.991629302750147424e-03,8.997785958029924203e+00
1.893844105999987863e-03,-2.994607839340598151e-03,8.997785958029924203e+00
1.889137852504134494e-03,-2.997578987033890693e-03,8.997785958029924203e+00
1.884426937748424078e-03,-3.000542738499012950e-03,8.997785958029924203e+00
1.879711373356569674e-03,-3.003499086423202982e-03,8.997785958029924203e+00
1.874991170963758455e-03,-3.006448023511966786e-03,8.997785958029924203e+00
1.870266342216620045e-03,-3.009389542489094346e-03,8.997785958029924203e+00
1.865536898773200282e-03,-3.012323636096680881e-03,8.997785958029924203e+00
1.860802852302929997e-03,-3.015250297095141592e-03,8.997785958029924203e+00
1.856064214486598338e-03,-3.018169518263231176e-03,8.997785958029924203e+00
1.851320997016323933e-03,-3.021081292398062040e-03,8.997785958029924203e+00
1.846573211595523446e-03,-3.023985612315120350e-03,8.997785958029924203e+00
1.841820869938885557e-03,-3.026882470848286412e-03,8.997785958029924203e+00
1.837063983772341692e-03,-3.029771860849848550e-03,8.997785958029924203e+00
1.832302564833034574e-03,-3.032653775190524790e-03,8.997785958029924203e+00
1.827536624869292858e-03,-3.035528206759478039e-03,8.997785958029924203e+00
1.822766175640599257e-03,-3.038395148464333867e-03,8.997785958029924203e+00
1.817991228917562778e-03,-3.041254593231199586e-03,8.997785958029924203e+00
1.813211796481890327e-03,-3.044106534004678132e-03,8.997785958029924203e+00
1.808427890126356125e-03,-3.046950963747890179e-03,8.997785958029924203e+00
1.803639521654773741e-03,-3.049787875442486716e-03,8.997785958029924203e+00
1.798846702881965950e-03,-3.052617262088671603e-03,8.997785958029924203e+00
1.794049445633736544e-03,-3.055439116705213707e-03,8.997785958029924203e+00
1.789247761746841922e-03,-3.058253432329468592e-03,8.997785958029924203e+00
1.784441663068958572e-03,-3.061060202017390226e-03,8.997785958029924203e+00
1.779631161458658127e-03,-3.063859418843554831e-03,8.997785958029924203e+00
1.774816268785374624e-03,-3.066651075901172165e-03,8.997785958029924203e+00
1.769996996929376750e-03,-3.069435166302107200e-03,8.997785958029924203e+00
1.765173357781739437e-03,-3.072211683176892701e-03,8.997785958029924203e+00
1.760345363244312849e-03,-3.074980619674750042e-03,8.997785958029924203e+00
1.755513025229692679e-03,-3.077741968963601787e-03,8.997785958029924203e+00
1.750676355661193477e-03,-3.080495724230095534e-03,8.997785958029924203e+00
1.745835366472816121e-03,-3.083241878679612597e-03,8.997785958029924203e+00
1.740990069609220283e-03,-3.085980425536289685e-03,8.997785958029924203e+00
1.736140477025694502e-03,-3.088711358043035385e-03,8.997785958029924203e+00
1.731286600688126476e-03,-3.091434669461544903e-03,8.997785958029924203e+00
1.726428452572972925e-03,-3.094150353072317415e-03,8.997785958029924203e+00
1.721566044667232481e-03,-3.096858402174674282e-03,8.997785958029924203e+00
1.716699388968412083e-03,-3.099558810086773791e-03,8.997785958029924203e+00
1.711828497484501601e-03,-3.102251570145627638e-03,8.997785958029924203e+00
1.706953382233941533e-03,-3.104936675707117844e-03,8.997785958029924203e+00
1.702074055245593942e-03,-3.107614120146012793e-03,8.997785958029924203e+00
1.697190528558713187e-03,-3.110283896855985455e-03,8.997785958029924203e+00
1.692302814222916216e-03,-3.112945999249626828e-03,8.997785958029924203e+00
1.687410924298151770e-03,-3.115600420758463281e-03,8.997785958029924203e+00
1.682514870854672200e-03,-3.118247154832975206e-03,8.997785958029924203e+00
1.677614665973002888e-03,-3.120886194942607862e-03,8.997785958029924203e+00
1.672710321743911674e-03,-3.123517534575792620e-03,8.997785958029924203e+00
1.667801850268381099e-03,-3.126141167239960845e-03,8.997785958029924203e+00
1.662889263657576101e-03,-3.128757086461558638e-03,8.997785958029924203e+00
1.657972574032816034e-03,-3.131365285786066790e-03,8.997785958029924203e+00
1.653051793525543668e-03,-3.133965758778012051e-03,8.997785958029924203e+00
1.648126934277295910e-03,-3.136558499020985786e-03,8.997785958029924203e+00
1.643198008439673233e-03,-3.139143500117659146e-03,8.997785958029924203e+00
1.638265028174310184e-03,-3.141720755689799555e-03,8.997785958029924203e+00
1.633328005652845243e-03,-3.144290259378284148e-03,8.997785958029924203e+00
1.628386953056890898e-03,-3.146852004843118857e-03,8.997785958029924203e+00
1.623441882578002858e-03,-3.149405985763450121e-03,8.997785958029924203e+00
1.618492806417651210e-03,-3.151952195837584830e-03,8.997785958029924203e+00
1.613539736787189408e-03,-3.154490628783003341e-03,8.997785958029924203e+00
1.608582685907824139e-03,-3.157021278336373353e-03,8.997785958029924203e+00
1.603621666010586044e-03,-3.159544138253569424e-03,8.997785958029924203e+00
1.598656689336298495e-03,-3.162059202309685547e-03,8.997785958029924203e+00
1.593687768135547455e-03,-3.164566464299050762e-03,8.997785958029924203e+00
1.588714914668652636e-03,-3.167065918035246071e-03,8.997785958029924203e+00
1.583738141205635191e-03,-3.169557557351117012e-03,8.997785958029924203e+00
1.578757460026189094e-03,-3.172041376098791443e-03,8.997785958029924203e+00
1.573772883419650125e-03,-3.174517368149693854e-03,8.997785958029924203e+00
1.568784423684965517e-03,-3.176985527394560107e-03,8.997785958029924203e+00
1.563792093130663601e-03,-3.179445847743451754e-03,8.997785958029924203e+00
1.558795904074823657e-03,-3.181898323125773812e-03,8.997785958029924203e+00
1.553795868845046432e-03,-3.184342947490286478e-03,8.997785958029924203e+00
1.548791999778420525e-03,-3.186779714805122472e-03,8.997785958029924203e+00
1.543784309221496150e-03,-3.189208619057800915e-03,8.997785958029924203e+00
1.538772809530251960e-03,-3.191629654255241644e-03,8.997785958029924203e+00
1.533757513070065125e-03,-3.194042814423780820e-03,8.997785958029924203e+00
1.528738432215680969e-03,-3.196448093609186112e-03,8.997785958029924203e+00
1.523715579351183052e-03,-3.198845485876670135e-03,8.997785958029924203e+00
1.518688966869960640e-03,-3.201234985310904765e-03,8.997785958029924203e+00
1.513658607174681384e-03,-3.203616586016038922e-03,8.997785958029924203e+00
1.508624512677257060e-03,-3.205990282115709408e-03,8.997785958029924203e+00
1.503586695798815598e-03,-3.208356067753056953e-03,8.997785958029924203e+00
1.498545168969669418e-03,-3.210713937090740096e-03,8.997785958029924203e+00
1.493499944629285078e-03,-3.213063884310951666e-03,8.997785958029924203e+00
1.488451035226251613e-03,-3.215405903615429616e-03,8.997785958029924203e+00
1.483398453218251261e-03,-3.217739989225474381e-03,8.997785958029924203e+00
1.478342211072027805e-03,-3.220066135381962312e-03,8.997785958029924203e+00
1.473282321263356216e-03,-3.222384336345358261e-03,8.997785958029924203e+00
1.468218796277011859e-03,-3.224694586395732056e-03,8.997785958029924203e+00
1.463151648606738839e-03,-3.226996879832771514e-03,8.997785958029924203e+00
1.458080890755220288e-03,-3.229291210975795447e-03,8.997785958029924203e+00
1.453006535234047580e-03,-3.231577574163771449e-03,8.997785958029924203e+00
1.447928594563688233e-03,-3.233855963755324567e-03,8.997785958029924203e+00
1.442847081273456204e-03,-3.236126374128755947e-03,8.997785958029924203e+00
1.437762007901480016e-03,-3.238388799682051945e-03,8.997785958029924203e+00
1.432673386994673479e-03,-3.240643234832904507e-03,8.997785958029924203e+00
1.427581231108702086e-03,-3.242889674018716809e-03,8.997785958029924203e+00
1.422485552807954820e-03,-3.245128111696625375e-03,8.997785958029924203e+00
1.417386364665510975e-03,-3.247358542343507445e-03,8.997785958029924203e+00
1.412283679263110457e-03,-3.249580960455995728e-03,8.997785958029924203e+00
1.407177509191122550e-03,-3.251795360550495742e-03,8.997785958029924203e+00
1.402067867048514046e-03,-3.254001737163194925e-03,8.997785958029924203e+00
1.396954765442818885e-03,-3.256200084850078245e-03,8.997785958029924203e+00
1.391838216990107149e-03,-3.258390398186942084e-03,8.997785958029924203e+00
1.386718234314953833e-03,-3.260572671769405070e-03,8.997785958029924203e+00
1.381594830050406758e-03,-3.262746900212924132e-03,8.997785958029924203e+00
1.376468016837956859e-03,-3.264913078152807940e-03,8.997785958029924203e+00
1.371337807327506096e-03,-3.267071200244226013e-03,8.997785958029924203e+00
1.366204214177336226e-03,-3.269221261162227367e-03,8.997785958029924203e+00
1.361067250054078448e-03,-3.271363255601750925e-03,8.997785958029924203e+00
1.355926927632680658e-03,-3.273497178277637656e-03,8.997785958029924203e+00
1.350783259596377963e-03,-3.275623023924646195e-03,8.997785958029924203e+00
1.345636258636659279e-03,-3.277740787297462807e-03,8.997785958029924203e+00
1.340485937453238284e-03,-3.279850463170717444e-03,8.997785958029924203e+00
1.335332308754020453e-03,-3.281952046338995014e-03,8.997785958029924203e+00
1.330175385255072265e-03,-3.284045531616847091e-03,8.997785958029924203e+00
1.325015179680589985e-03,-3.286130913838807097e-03,8.997785958029924203e+00
1.319851704762867346e-03,-3.288208187859401575e-03,8.997785958029924203e+00
1.314684973242265850e-03,-3.290277348553164501e-03,8.997785958029924203e+00
1.309514997867182017e-03,-3.292338390814646392e-03,8.997785958029924203e+00
1.304341791394015735e-03,-3.294391309558429917e-03,8.997785958029924203e+00
1.299165366587140330e-03,-3.296436099719143777e-03,8.997785958029924203e+00
1.293985736218868955e-03,-3.298472756251470076e-03,8.997785958029924203e+00
1.288802913069424455e-03,-3.300501274130162102e-03,8.997785958029924203e+00
1.283616909926908788e-03,-3.302521648350053435e-03,8.997785958029924203e+00
1.278427739587267679e-03,-3.304533873926071390e-03,8.997785958029924203e+00
1.273235414854264388e-03,-3.306537945893249161e-03,8.997785958029924203e+00
1.268039948539443490e-03,-3.308533859306738833e-03,8.997785958029924203e+00
1.262841353462101609e-03,-3.310521609241822219e-03,8.997785958029924203e+00
1.257639642449255319e-03,-3.312501190793924310e-03,8.997785958029924203e+00
1.252434828335609708e-03,-3.314472599078624113e-03,8.997785958029924203e+00
1.247226923963526066e-03,-3.316435829231667663e-03,8.997785958029924203e+00
1.242015942182990440e-03,-3.318390876408979732e-03,8.997785958029924203e+00
1.236801895851583066e-03,-3.320337735786675973e-03,8.997785958029924203e+00
1.231584797834444321e-03,-3.322276402561073760e-03,8.997785958029924203e+00
1.226364661004245016e-03,-3.324206871948706069e-03,8.997785958029924203e+00
1.221141498241154304e-03,-3.326129139186331449e-03,8.997785958029924203e+00
1.215915322432806504e-03,-3.328043199530946600e-03,8.997785958029924203e+00
1.210686146474271177e-03,-3.329949048259798518e-03,8.997785958029924203e+00
1.205453983268020383e-03,-3.331846680670394033e-03,8.997785958029924203e+00
1.200218845723896588e-03,-3.333736092080514125e-03,8.997785958029924203e+00
1.194980746759081005e-03,-3.335617277828223457e-03,8.997785958029924203e+00
1.189739699298062369e-03,-3.337490233271883829e-03,8.997785958029924203e+00
1.184495716272603982e-03,-3.339354953790164143e-03,8.997785958029924203e+00
1.179248810621713345e-03,-3.341211434782051255e-03,8.997785958029924203e+00
1.173998995291608127e-03,-3.343059671666862975e-03,8.997785958029924203e+00
1.168746283235685577e-03,-3.344899659884258483e-03,8.997785958029924203e+00
1.163490687414491095e-03,-3.346731394894250037e-03,8.997785958029924203e+00
1.158232220795684178e-03,-3.348554872177213811e-03,8.997785958029924203e+00
1.152970896354009152e-03,-3.350370087233900309e-03,8.997785958029924203e+00
1.147706727071260910e-03,-3.352177035585446503e-03,8.997785958029924203e+00
1.142439725936253902e-03,-3.353975712773388414e-03,8.997785958029924203e+00
1.137169905944789396e-03,-3.355766114359667179e-03,8.997785958029924203e+00
1.131897280099624899e-03,-3.357548235926645971e-03,8.997785958029924203e+00
1.126621861410440333e-03,-3.359322073077116062e-03,8.997785958029924203e+00
1.121343662893806593e-03,-3.361087621434312011e-03,8.997785958029924203e+00
1.116062697573154535e-03,-3.362844876641917294e-03,8.997785958029924203e+00
1.110778978478740506e-03,-3.364593834364080355e-03,8.997785958029924203e+00
1.105492518647616627e-03,-3.366334490285421109e-03,8.997785958029924203e+00
1.100203331123596759e-03,-3.368066840111045256e-03,8.997785958029924203e+00
1.094911428957224837e-03,-3.369790879566550348e-03,8.997785958029924203e+00
1.089616825205744514e-03,-3.371506604398041406e-03,8.997785958029924203e+00
1.084319532933063386e-03,-3.373214010372137858e-03,8.997785958029924203e+00
1.079019565209723497e-03,-3.374913093275984811e-03,8.997785958029924203e+00
1.073716935112868816e-03,-3.376603848917264332e-03,8.997785958029924203e+00
1.068411655726212058e-03,-3.378286273124205420e-03,8.997785958029924203e+00
1.063103740140001943e-03,-3.379960361745592678e-03,8.997785958029924203e+00
1.057793201450993271e-03,-3.381626110650778894e-03,8.997785958029924203e+00
1.052480052762412447e-03,-3.383283515729695445e-03,8.997785958029924203e+00
1.047164307183924949e-03,-3.384932572892858805e-03,8.997785958029924203e+00
1.041845977831605411e-03,-3.386573278071384856e-03,8.997785958029924203e+00
1.036525077827902272e-03,-3.388205627216996259e-03,8.997785958029924203e+00
1.031201620301607207e-03,-3.389829616302034599e-03,8.997785958029924203e+00
1.025875618387823247e-03,-3.391445241319467323e-03,8.997785958029924203e+00
1.020547085227929869e-03,-3.393052498282900752e-03,8.997785958029924203e+00
1.015216033969553290e-03,-3.394651383226588316e-03,8.997785958029924203e+00
1.009882477766532857e-03,-3.396241892205440101e-03,8.997785958029924203e+00
1.004546429778887650e-03,-3.397824021295032821e-03,8.997785958029924203e+00
9.992079031727859120e-04,-3.399397766591621094e-03,8.997785958029924203e+00
9.938669111205118700e-04,-3.400963124212144813e-03,8.997785958029924203e+00
9.885234668004316914e-04,-3.402520090294238689e-03,8.997785958029924203e+00
9.831775833969637769e-04,-3.404068660996244829e-03,8.997785958029924203e+00
9.778292741005429820e-04,-3.405608832497217936e-03,8.997785958029924203e+00
9.724785521075919939e-04,-3.407140600996938756e-03,8.997785958029924203e+00
9.671254306204846857e-04,-3.408663962715920148e-03,8.997785958029924203e+00
9.617699228475164088e-04,-3.410178913895419231e-03,8.997785958029924203e+00
9.564120420028704916e-04,-3.411685450797443883e-03,8.997785958029924203e+00
9.510518013065847372e-04,-3.413183569704764456e-03,8.997785958029924203e+00
9.456892139845207408e-04,-3.414673266920921577e-03,8.997785958029924203e+00
9.403242932683293035e-04,-3.416154538770234828e-03,8.997785958029924203e+00
9.349570523954192072e-04,-3.417627381597813582e-03,8.997785958029924203e+00
9.295875046089236045e-04,-3.419091791769564813e-03,8.997785958029924203e+00
9.242156631576680346e-04,-3.420547765672201333e-03,8.997785958029924203e+00
9.188415412961371386e-04,-3.421995299713253506e-03,8.997785958029924203e+00
9.134651522844423497e-04,-3.423434390321073578e-03,8.997785958029924203e+00
9.080865093882893677e-04,-3.424865033944848695e-03,8.997785958029924203e+00
9.027056258789446569e-04,-3.426287227054609138e-03,8.997785958029924203e+00
8.973225150332031367e-04,-3.427700966141233527e-03,8.997785958029924203e+00
8.919371901333561980e-04,-3.429106247716461400e-03,8.997785958029924203e+00
8.865496644671574424e-04,-3.430503068312901020e-03,8.997785958029924203e+00
8.811599513277910229e-04,-3.431891424484035877e-03,8.997785958029924203e+00
8.757680640138381430e-04,-3.433271312804234664e-03,8.997785958029924203e+00
8.703740158292447467e-04,-3.434642729868760385e-03,8.997785958029924203e+00
8.649778200832887757e-04,-3.436005672293778596e-03,8.997785958029924203e+00
8.595794900905464513e-04,-3.437360136716363038e-03,8.997785958029924203e+00
8.541790391708608318e-04,-3.438706119794508222e-03,8.997785958029924203e+00
8.487764806493072267e-04,-3.440043618207134623e-03,8.997785958029924203e+00
8.433718278561621890e-04,-3.441372628654097796e-03,8.997785958029924203e+00
8.379650941268690367e-04,-3.442693147856196179e-03,8.997785958029924203e+00
8.325562928020057612e-04,-3.444005172555181064e-03,8.997785958029924203e+00
8.271454372272519584e-04,-3.445308699513760075e-03,8.997785958029924203e+00
8.217325407533558699e-04,-3.446603725515611470e-03,8.997785958029924203e+00
8.163176167361015307e-04,-3.447890247365387184e-03,8.997785958029924203e+00
8.109006785362757016e-04,-3.449168261888721932e-03,8.997785958029924203e+00
8.054817395196346924e-04,-3.450437765932242318e-03,8.997785958029924203e+00
8.000608130568721615e-04,-3.451698756363572474e-03,8.997785958029924203e+00
7.946379125235850712e-04,-3.452951230071345766e-03,8.997785958029924203e+00
7.892130513002412707e-04,-3.454195183965205664e-03,8.997785958029924203e+00
7.837862427721468614e-04,-3.455430614975820488e-03,8.997785958029924203e+00
7.783575003294123697e-04,-3.456657520054888175e-03,8.997785958029924203e+00
7.729268373669200042e-04,-3.457875896175140185e-03,8.997785958029924203e+00
7.674942672842906960e-04,-3.459085740330355811e-03,8.997785958029924203e+00
7.620598034858515725e-04,-3.460287049535365218e-03,8.997785958029924203e+00
7.566234593806010463e-04,-3.461479820826056809e-03,8.997785958029924203e+00
7.511852483821784571e-04,-3.462664051259385905e-03,8.997785958029924203e+00
7.457451839088286190e-04,-3.463839737913382115e-03,8.997785958029924203e+00
7.403032793833697273e-04,-3.465006877887154974e-03,8.997785958029924203e+00
7.348595482331603994e-04,-3.466165468300902181e-03,8.997785958029924203e+00
7.294140038900660643e-04,-3.467315506295918278e-03,8.997785958029924203e+00
7.239666597904260027e-04,-3.468456989034598113e-03,8.997785958029924203e+00
7.185175293750202790e-04,-3.469589913700447253e-03,8.997785958029924203e+00
7.130666260890365649e-04,-3.470714277498085018e-03,8.997785958029924203e+00
7.076139633820369623e-04,-3.471830077653257924e-03,8.997785958029924203e+00
7.021595547079243936e-04,-3.472937311412837517e-03,8.997785958029924203e+00
6.967034135249101836e-04,-3.474035976044836417e-03,8.997785958029924203e+00
6.912455532954803411e-04,-3.475126068838407453e-03,8.997785958029924203e+00
6.857859874863624907e-04,-3.476207587103856238e-03,8.997785958029924203e+00
6.803247295684924792e-04,-3.477280528172643336e-03,8.997785958029924203e+00
6.748617930169814160e-04,-3.478344889397393374e-03,8.997785958029924203e+00
6.693971913110820628e-04,-3.479400668151900675e-03,8.997785958029924203e+00
6.639309379341558738e-04,-3.480447861831136632e-03,8.997785958029924203e+00
6.584630463736399278e-04,-3.481486467851254048e-03,8.997785958029924203e+00
6.529935301210127753e-04,-3.482516483649597105e-03,8.997785958029924203e+00
6.475224026717622382e-04,-3.483537906684703971e-03,8.997785958029924203e+00
6.420496775253515826e-04,-3.484550734436313302e-03,8.997785958029924203e+00
6.365753681851857998e-04,-3.485554964405374653e-03,8.997785958029924203e+00
6.310994881585789721e-04,-3.486550594114050210e-03,8.997785958029924203e+00
6.256220509567210963e-04,-3.487537621105723032e-03,8.997785958029924203e+00
6.201430700946436057e-04,-3.488516042945001387e-03,8.997785958029924203e+00
6.146625590911872781e-04,-3.489485857217726559e-03,8.997785958029924203e+00
6.091805314689681915e-04,-3.490447061530978917e-03,8.997785958029924203e+00
6.036970007543445479e-04,-3.491399653513081822e-03,8.997785958029924203e+00
5.982119804773832795e-04,-3.492343630813609864e-03,8.997785958029924203e+00
5.927254841718267641e-04,-3.493278991103391899e-03,8.997785958029924203e+00
5.872375253750591060e-04,-3.494205732074520589e-03,8.997785958029924203e+00
5.817481176280730679e-04,-3.495123851440353705e-03,8.997785958029924203e+00
5.762572744754368946e-04,-3.496033346935523665e-03,8.997785958029924203e+00
5.707650094652597268e-04,-3.496934216315940574e-03,8.997785958029924203e+00
5.652713361491598339e-04,-3.497826457358798723e-03,8.997785958029924203e+00
5.597762680822299195e-04,-3.498710067862581367e-03,8.997785958029924203e+00
5.542798188230044871e-04,-3.499585045647068092e-03,8.997785958029924203e+00
5.487820019334252539e-04,-3.500451388553338719e-03,8.997785958029924203e+00
5.432828309788090585e-04,-3.501309094443778511e-03,8.997785958029924203e+00
5.377823195278136001e-04,-3.502158161202081205e-03,8.997785958029924203e+00
5.322804811524040449e-04,-3.502998586733261158e-03,8.997785958029924203e+00
5.267773294278197413e-04,-3.503830368963650743e-03,8.997785958029924203e+00
5.212728779325403929e-04,-3.504653505840910760e-03,8.997785958029924203e+00
5.157671402482529900e-04,-3.505467995334032600e-03,8.997785958029924203e+00
5.102601299598179827e-04,-3.506273835433343887e-03,8.997785958029924203e+00
5.047518606552357789e-04,-3.507071024150514114e-03,8.997785958029924203e+00
4.992423459256131344e-04,-3.507859559518560714e-03,8.997785958029924203e+00
4.937315993651301927e-04,-3.508639439591849929e-03,8.997785958029924203e+00
4.882196345710063329e-04,-3.509410662446105049e-03,8.997785958029924203e+00
4.827064651434665051e-04,-3.510173226178411616e-03,8.997785958029924203e+00
4.771921046857085418e-04,-3.510927128907218291e-03,8.997785958029924203e+00
4.716765668038683549e-04,-3.511672368772345097e-03,8.997785958029924203e+00
4.661598651069876809e-04,-3.512408943934987749e-03,8.997785958029924203e+00
4.606420132069794946e-04,-3.513136852577718530e-03,8.997785958029924203e+00
4.551230247185946700e-04,-3.513856092904496693e-03,8.997785958029924203e+00
4.496029132593888037e-04,-3.514566663140667596e-03,8.997785958029924203e+00
4.440816924496882251e-04,-3.515268561532970074e-03,8.997785958029924203e+00
4.385593759125563863e-04,-3.515961786349539910e-03,8.997785958029924203e+00
4.330359772737603602e-04,-3.516646335879912433e-03,8.997785958029924203e+00
4.275115101617372299e-04,-3.517322208435031631e-03,8.997785958029924203e+00
4.219859882075604790e-04,-3.517989402347247978e-03,8.997785958029924203e+00
4.164594250449062183e-04,-3.518647915970327545e-03,8.997785958029924203e+00
4.109318343100196299e-04,-3.519297747679451128e-03,8.997785958029924203e+00
4.054032296416814653e-04,-3.519938895871226828e-03,8.997785958029924203e+00
3.998736246811741097e-04,-3.520571358963683548e-03,8.997785958029924203e+00
3.943430330722480265e-04,-3.521195135396281393e-03,8.997785958029924203e+00
3.888114684610884174e-04,-3.521810223629914718e-03,8.997785958029924203e+00
3.832789444962809077e-04,-3.522416622146914283e-03,8.997785958029924203e+00
3.777454748287785327e-04,-3.523014329451051169e-03,8.997785958029924203e+00
3.722110731118675846e-04,-3.523603344067542404e-03,8.997785958029924203e+00
3.666757530011341653e-04,-3.524183664543054442e-03,8.997785958029924203e+00
3.611395281544303596e-04,-3.524755289445701857e-03,8.997785958029924203e+00
3.556024122318406241e-04,-3.525318217365058619e-03,8.997785958029924203e+00
3.500644188956481234e-04,-3.525872446912155494e-03,8.997785958029924203e+00
3.445255618103009029e-04,-3.526417976719486112e-03,8.997785958029924203e+00
3.389858546423781698e-04,-3.526954805441010008e-03,8.997785958029924203e+00
3.334453110605567375e-04,-3.527482931752156086e-03,8.997785958029924203e+00
3.279039447355769810e-04,-3.528002354349824791e-03,8.997785958029924203e+00
3.223617693402096611e-04,-3.528513071952392010e-03,8.997785958029924203e+00
3.168187985492214461e-04,-3.529015083299714278e-03,8.997785958029924203e+00
3.112750460393418441e-04,-3.529508387153126175e-03,8.997785958029924203e+00
3.057305254892291589e-04,-3.529992982295451602e-03,8.997785958029924203e+00
3.001852505794365541e-04,-3.530468867530999876e-03,8.997785958029924203e+00
2.946392349923787147e-04,-3.530936041685570070e-03,8.997785958029924203e+00
2.890924924122977480e-04,-3.531394503606457951e-03,8.997785958029924203e+00
2.835450365252295741e-04,-3.531844252162453807e-03,8.997785958029924203e+00
2.779968810189700984e-04,-3.532285286243848094e-03,8.997785958029924203e+00
2.724480395830416015e-04,-3.532717604762432295e-03,8.997785958029924203e+00
2.668985259086587491e-04,-3.533141206651503694e-03,8.997785958029924203e+00
2.613483536886947655e-04,-3.533556090865866677e-03,8.997785958029924203e+00
2.557975366176479313e-04,-3.533962256381836635e-03,8.997785958029924203e+00
2.502460883916075396e-04,-3.534359702197238662e-03,8.997785958029924203e+00
2.446940227082203398e-04,-3.534748427331416663e-03,8.997785958029924203e+00
2.391413532666564125e-04,-3.535128430825229887e-03,8.997785958029924203e+00
2.335880937675756408e-04,-3.535499711741055956e-03,8.997785958029924203e+00
2.280342579130937740e-04,-3.535862269162796945e-03,8.997785958029924203e+00
2.224798594067487368e-04,-3.536216102195878508e-03,8.997785958029924203e+00
2.169249119534666663e-04,-3.536561209967252917e-03,8.997785958029924203e+00
2.113694292595282205e-04,-3.536897591625400798e-03,8.997785958029924203e+00
2.058134250325347240e-04,-3.537225246340333727e-03,8.997785958029924203e+00
2.002569129813742326e-04,-3.537544173303597272e-03,8.997785958029924203e+00
1.946999068161879500e-04,-3.537854371728268825e-03,8.997785958029924203e+00
1.891424202483361569e-04,-3.538155840848967136e-03,8.997785958029924203e+00
1.835844669903644109e-04,-3.538448579921844948e-03,8.997785958029924203e+00
1.780260607559700447e-04,-3.538732588224598966e-03,8.997785958029924203e+00
1.724672152599677696e-04,-3.539007865056466393e-03,8.997785958029924203e+00
1.669079442182563097e-04,-3.539274409738229696e-03,8.997785958029924203e+00
1.613482613477843300e-04,-3.539532221612215739e-03,8.997785958029924203e+00
1.557881803665166372e-04,-3.539781300042298823e-03,8.997785958029924203e+00
1.502277149934003251e-04,-3.540021644413903282e-03,8.997785958029924203e+00
1.446668789483309477e-04,-3.540253254134004355e-03,8.997785958029924203e+00
1.391056859521186916e-04,-3.540476128631126450e-03,8.997785958029924203e+00
1.335441497264544140e-04,-3.540690267355350081e-03,8.997785958029924203e+00
1.279822839938759779e-04,-3.540895669778307536e-03,8.997785958029924203e+00
1.224201024777340455e-04,-3.541092335393190675e-03,8.997785958029924203e+00
1.168576189021587391e-04,-3.541280263714745302e-03,8.997785958029924203e+00
1.112948469920252312e-04,-3.541459454279277663e-03,8.997785958029924203e+00
1.057318004729202831e-04,-3.541629906644653148e-03,8.997785958029924203e+00
1.001684930711081473e-04,-3.541791620390296724e-03,8.997785958029924203e+00
9.460493851349682098e-05,-3.541944595117195536e-03,8.997785958029924203e+00
8.904115052760412457e-05,-3.542088830447901078e-03,8.997785958029924203e+00
8.347714284152379309e-05,-3.542224326026526156e-03,8.997785958029924203e+00
7.791292918389173042e-05,-3.542351081518748356e-03,8.997785958029924203e+00
7.234852328385199245e-05,-3.542469096611811780e-03,8.997785958029924203e+00
6.678393887102301418e-05,-3.542578371014525312e-03,8.997785958029924203e+00
6.121918967546367417e-05,-3.542678904457266954e-03,8.997785958029924203e+00
5.565428942763943359e-05,-3.542770696691977753e-03,8.997785958029924203e+00
