accel_x (m/s^2),accel_y (m/s^2),accel_z (m/s^2)
3.459143529203265437e-04,-8.252263328985424973e-03,-9.797694232668812120e+00
3.070957115813744472e-03,-2.298133106547689888e-04,-9.795253145669086337e+00
1.402523658465407337e-03,-2.114925280173720679e-04,-9.784022343449475301e+00
2.386684264434413196e-03,5.643345584857665034e-03,-9.799845542859154435e+00
-3.923250046106187966e-03,5.663912407474700796e-03,-9.802615845742744582e+00
1.662827592170831436e-03,-6.015223033680605494e-04,-9.802534233461006608e+00
-2.023725382739484293e-03,-2.319940972559775922e-04,-9.785246532730212721e+00
-4.894889897804629610e-03,-6.034726141117605254e-03,-9.795630121856831352e+00
-1.139811333211106941e-04,3.781484722420905102e-03,-9.790040254068337333e+00
2.343178721947741620e-03,-2.373226514228278430e-03,-9.793995986904951323e+00
-2.145958462851441095e-03,-1.652480208392713900e-03,-9.789290164629374402e+00
-1.109065778189501084e-02,4.611036933704524936e-03,-9.797536488454849035e+00
-7.229605405638253081e-03,-2.406464717248785664e-05,-9.799816587351237729e+00
-4.280750575801576391e-03,2.942748642027413243e-03,-9.798260661748980027e+00
-2.338309097210697720e-04,2.884422260000289728e-03,-9.793785775556692386e+00
3.225921108050082853e-03,1.455602211894394026e-03,-9.793844735563737913e+00
-4.811240058854158140e-03,-8.119938821443340587e-03,-9.784848415848307113e+00
-5.112019121828319766e-03,-9.608554369765558503e-03,-9.798312226487400523e+00
-2.506260076246435552e-03,-3.961045322511037685e-03,-9.800144579697422031e+00
5.546095177855119539e-03,-6.415628329270163478e-05,-9.788003671085105495e+00
4.595593778631381840e-03,4.441495853362422558e-03,-9.789121330238266694e+00
3.106617833040931694e-03,-9.424129065351909487e-03,-9.794020595368541748e+00
1.030195649963669635e-04,1.226098996542071638e-03,-9.795940744035915415e+00
-7.164356821588023939e-04,-1.760390686109843984e-03,-9.796860873702167183e+00
3.963712773185947003e-03,9.826905845583073975e-04,-9.799355838255310758e+00
2.251702128661462084e-03,3.518493782893567390e-03,-9.792116410018092409e+00
2.571061122276529533e-04,3.499639333052333243e-03,-9.796686667676894444e+00
-8.381222887301375407e-03,-5.412624137181317081e-03,-9.795069727607383925e+00
8.376848420446126372e-04,-8.817412032258491184e-03,-9.783106818697113738e+00
2.599903439488090323e-04,-8.646141926401925207e-03,-9.789095526706082850e+00
1.947846707716611699e-03,1.829966283533786655e-03,-9.804090164053134160e+00
-4.528880731673042351e-03,3.406095923791344245e-04,-9.793460504978533265e+00
3.193604753603150430e-03,1.245966234846581245e-03,-9.793052018220164356e+00
-4.228956532854100114e-03,-6.750340647907668995e-03,-9.802643048824361216e+00
-3.344501403149921265e-04,1.800943109423141283e-03,-9.793978242277178836e+00
7.192135151159304474e-05,-1.881572279512510552e-03,-9.782371870199163766e+00
-5.855754259440518021e-03,-2.645866583028031859e-03,-9.790906107962495497e+00
2.541811610617481648e-03,-3.812901219876475151e-03,-9.797488140551861235e+00
-4.696259247475214303e-03,-9.179936639401220858e-03,-9.793719107422539594e+00
2.181766631438126960e-03,-5.859517610197040316e-03,-9.795433122995911290e+00
1.706480096087837901e-04,9.597594488968822987e-03,-9.797651649539851348e+00
-6.301078912916497493e-03,4.413230029768993451e-03,-9.802224264251327313e+00
-7.188023717875362435e-03,6.939034266601227597e-04,-9.792478108210454835e+00
-4.096570278405714397e-04,6.396860447105876500e-04,-9.802627876184351052e+00
3.378019304078111549e-03,-1.020526792568460196e-03,-9.793400867335522619e+00
1.683563318242715717e-03,9.247149788702190010e-03,-9.790421158095252707e+00
3.640730603747590992e-03,-5.230881273056822538e-03,-9.801438013534438554e+00
3.882345734473922698e-04,2.427406643932791212e-03,-9.794192452820093209e+00
3.547296071937417090e-03,1.193289743057196137e-02,-9.796331419699800591e+00
-2.090564411514451906e-03,-2.934463077179874473e-03,-9.792253874988839257e+00
-1.215202351421205973e-02,6.282983045721501035e-03,-9.794086569969822520e+00
2.180065772997821262e-03,-6.283638807844873922e-04,-9.794025888856719320e+00
-4.704149014554770067e-03,-8.396983367328651662e-04,-9.790825045109219360e+00
5.466143284827439108e-03,-1.022193997281655928e-02,-9.795943214475963501e+00
-5.943109824200669758e-03,7.536590901318880771e-03,-9.793602003230903463e+00
-6.147520993512228284e-03,6.311315262535808048e-04,-9.796360728911100324e+00
-5.484209801184976307e-03,1.800315868403231084e-03,-9.792508195109192570e+00
-9.337214308916338620e-03,-7.330334591261434760e-04,-9.795013469052021193e+00
-5.834954662256198500e-03,-3.250901333309294062e-05,-9.792135785665115222e+00
8.226328419340093664e-03,4.791377057004901109e-03,-9.793703630759974743e+00
8.373841443828081849e-03,5.468441546134867465e-03,-9.801048238747512187e+00
2.361205384455830787e-03,2.755367574483850567e-03,-9.794923214701528380e+00
2.531437460392457327e-03,-4.316932366325248668e-03,-9.804664493731257480e+00
2.812908011853705549e-04,-3.401081748830086723e-03,-9.799645354355435600e+00
-6.098582767916600929e-03,-1.034908949054119329e-03,-9.804128277352180731e+00
1.714663861905668532e-03,-1.916263245441897790e-03,-9.796517412063257879e+00
-2.800423847295556434e-03,1.528587876557683731e-03,-9.798156420704042802e+00
1.047691709026242132e-03,9.413482325051102714e-04,-9.790451803300980416e+00
2.113831771157179823e-03,9.411269785798506010e-03,-9.791057318243417740e+00
-7.334814582898000965e-03,4.880466587790324197e-03,-9.800104805840033961e+00
4.826256311346498185e-03,-6.219471962733283572e-03,-9.790958476737076310e+00
-1.243409123851589527e-04,-7.232900625259693420e-03,-9.800070048769558895e+00
9.794353183404491247e-04,-4.888651577542216242e-03,-9.792696757108483752e+00
4.174643159163873504e-03,1.106722330190246326e-03,-9.797859674609657787e+00
-7.086048728154076271e-03,8.642931715447154176e-03,-9.795117483376937884e+00
5.045691845022764153e-03,1.366286848360243359e-03,-9.794571786092431509e+00
-2.971434066112779108e-03,-3.772230341820881176e-03,-9.791746508786543401e+00
1.146530085365120343e-03,1.742491083298308447e-03,-9.792136719958165259e+00
1.046687946259370998e-02,2.361156900631327434e-03,-9.795142230599914512e+00
-1.029982526582444435e-02,-1.793815441715864442e-03,-9.796228162853523713e+00
4.886740310959175604e-03,-7.048896386336113082e-03,-9.797713685748457024e+00
-9.725373482105274586e-04,-6.346918582533432954e-03,-9.792435996369322382e+00
-5.411133636088392941e-04,-4.031331003505357440e-03,-9.791937695807147790e+00
-4.534679956023544845e-03,-1.613292437669628081e-03,-9.798812316975070047e+00
-5.023299494836498333e-03,6.804804341339449128e-03,-9.793197117096482884e+00
5.122074086588242550e-03,-1.029177926081626358e-02,-9.794841866392101082e+00
3.964986445114117644e-03,2.390049014631557677e-03,-9.795524044286008092e+00
3.653549340671372915e-03,-6.483944774249612505e-03,-9.800206848404888760e+00
9.247276985550685786e-04,-6.867768104855244502e-04,-9.792613899719929904e+00
-2.627533712408188470e-03,8.492300896479497777e-03,-9.783434674107402529e+00
6.559688524703636593e-03,-1.524203381141670433e-04,-9.803211542638509357e+00
-5.628637125655890777e-03,9.024090626791977932e-03,-9.796760956629766426e+00
1.517307376881174658e-05,4.836660631053779115e-03,-9.794126163843104749e+00
3.214008396987484955e-03,-4.395232125435063163e-03,-9.797934734870116458e+00
4.341526177479044547e-03,9.379086765165214196e-03,-9.792434618426591797e+00
2.927963815848653832e-03,-2.824317758934109367e-03,-9.797064324130301927e+00
3.040406249753723616e-03,3.817757837217661265e-03,-9.789561235338430478e+00
-1.421363453414911876e-03,-7.410237879752909484e-03,-9.797831582550914575e+00
-2.436251427346084256e-03,-1.152232104577036696e-02,-9.790540690314005090e+00
2.254516307358395491e-03,-6.336489358756576366e-03,-9.792362947426257236e+00
2.923314669507626196e-03,-8.851720690970012748e-04,-9.790963959050541732e+00
2.678482711057087824e-06,-1.072807182571540192e-03,-9.789463149207815462e+00
-3.601035164181442139e-03,-2.410814660653709095e-03,-9.802769006563606169e+00
-2.431612254918373399e-03,-3.692173345440405430e-03,-9.793508267378697951e+00
-9.667217731447283469e-03,6.192967006104034555e-03,-9.795313088205597651e+00
-7.370997417158984231e-03,-7.552218590017963605e-03,-9.793648558288454709e+00
4.558932176719319648e-03,5.003291328778618902e-03,-9.804430908090175478e+00
-1.273929379519572270e-03,6.644354792579723959e-03,-9.790289800863277492e+00
-5.457589093228494906e-03,5.388809227961067171e-03,-9.795320940184183200e+00
1.366160577209955341e-03,6.882244718940675257e-04,-9.797739894944786698e+00
8.767093759892250360e-04,2.061882217943316296e-03,-9.788462691495457335e+00
-1.247957898660675665e-03,-2.933236982337431974e-03,-9.791865757969913986e+00
-6.285125587740847224e-03,4.861040217225403963e-03,-9.805314388114148016e+00
1.868424376897298892e-04,-3.691344552194370573e-03,-9.792617988798788531e+00
-5.240008003823443290e-03,4.026871489504477326e-03,-9.780167220760246138e+00
-6.444533300719279241e-04,6.616927665049509265e-03,-9.794116189080886770e+00
1.466213899225826244e-03,2.896269661242357237e-03,-9.789615475096862696e+00
3.258243548056746763e-03,-1.928885387814455871e-03,-9.795363476873568231e+00
-5.476820402226995933e-03,-2.736435204990136146e-03,-9.801171344555573484e+00
-9.844230135536945203e-04,1.234500865288336345e-03,-9.803494074769256272e+00
7.743894539860272236e-03,-2.650691837445629927e-03,-9.797848903814781352e+00
-2.228205725758433849e-03,1.416957834157599920e-03,-9.798017085702833029e+00
2.410862284835197256e-03,-8.035937030760310906e-03,-9.800320063512467428e+00
-3.199981673176892881e-03,8.982000169565513290e-04,-9.794007780922962425e+00
-1.958089144993455056e-04,1.073108476462655055e-03,-9.784510989917082568e+00
2.028763755176200053e-03,4.518333073374473409e-03,-9.796355777547780974e+00
1.479126442611896665e-03,3.155489565983646272e-03,-9.785773737707121001e+00
-1.039338463906097241e-03,-8.731825472831441018e-03,-9.800637260997147493e+00
3.301000787435220442e-03,7.799370650688879428e-03,-9.796432537098201720e+00
-2.257730706134466331e-03,-1.144224497109108110e-03,-9.790887622329648821e+00
-9.342439900855283724e-03,-1.013448198813908822e-03,-9.799202904848941742e+00
-1.220848645456796156e-03,-9.155628204614142326e-03,-9.796625670391325258e+00
5.280843845821966628e-03,-1.210183682156161294e-03,-9.794435441474485415e+00
1.425296452248375409e-02,7.407173723919051843e-03,-9.785534098106955625e+00
1.730791549815279429e-03,4.463003955766983027e-03,-9.791642042519791644e+00
-4.184370038873961098e-03,-1.603719413304294846e-03,-9.795824104412986344e+00
-2.350057301510188792e-03,-7.909225775752483714e-03,-9.790635348123084114e+00
4.780314095251718756e-03,-3.924706350378830144e-03,-9.789907352681064268e+00
-2.560355034470446298e-03,7.493273624375490494e-03,-9.794409750240379964e+00
-3.023592930200725767e-03,-2.172536831456167781e-04,-9.799848082088811196e+00
5.799208722146116483e-03,-5.399948133834452102e-03,-9.797019559448489900e+00
-9.375332289029523895e-05,6.949311614025684798e-04,-9.787998461070044343e+00
2.904931354865298307e-05,-5.256291076417693095e-03,-9.798300716854571490e+00
4.174220188574972665e-03,5.086791337508644959e-04,-9.792315735406710075e+00
1.653618264975889899e-03,6.016288791202539961e-03,-9.795142307143851923e+00
-6.044713494504257156e-04,1.848660683931177551e-03,-9.795128981982662353e+00
1.348106594676505641e-04,3.129410711981134427e-04,-9.788320034289526461e+00
-7.905726689666566984e-03,-3.160121183559863600e-03,-9.796123638792197497e+00
-5.715567081989768664e-03,-7.840772962691587502e-05,-9.782927352414299449e+00
3.809217594196329017e-03,-9.003858011398802041e-03,-9.800604512223745957e+00
9.516778533836550312e-04,1.785567802016666027e-03,-9.785094392125648355e+00
-9.423154246374909615e-03,7.964818068978318094e-03,-9.801218102047338121e+00
-1.225588625970053941e-02,-7.835200270908219966e-03,-9.801571143089594429e+00
1.962927740563127476e-03,-1.187456670320096927e-02,-9.797033992473668462e+00
2.372472730687682704e-03,5.197322134437138384e-03,-9.806769172660047218e+00
-5.514340583462981442e-03,4.989649151552094306e-03,-9.793263988286311061e+00
-2.078168402280611629e-03,6.529166635690930760e-03,-9.804199939044515588e+00
-4.391191892817158764e-03,-6.585371496149843885e-03,-9.788899089477849813e+00
-7.110969061306286407e-03,4.691706229075388347e-03,-9.793185754193578063e+00
7.439752875038139601e-04,-1.110556613884910310e-03,-9.797044735438250385e+00
-8.857352789878293609e-03,2.970146930710660348e-03,-9.797077290656229565e+00
-9.260236966993708879e-03,-2.144826606447140186e-03,-9.802019463085242634e+00
-1.763537418607804153e-03,1.192321588183675729e-02,-9.802832027969950346e+00
1.063125423212878421e-03,-6.920031845406711749e-03,-9.797679604139013065e+00
5.120322542491347918e-03,9.371886783958702921e-03,-9.786836212856993455e+00
-2.052409323075916978e-03,-6.449535721552797710e-03,-9.792437833217009668e+00
-5.293299454582651477e-03,9.771117662767229994e-05,-9.796230835114002389e+00
-3.957504268265442555e-03,4.998194478909761748e-03,-9.798501033622361689e+00
-1.081685830417195059e-03,3.453209697589795443e-03,-9.787892715805931232e+00
-6.606430056283439656e-03,-3.648515270906676176e-03,-9.788010694867583794e+00
4.504694234622326834e-03,6.051352560676236201e-04,-9.793950867338470090e+00
3.453615384428861731e-03,-1.365835484083166053e-03,-9.789942475599792360e+00
1.522286561952732693e-03,4.810120763435606051e-04,-9.788005994036613089e+00
1.083060084913562131e-03,6.156286467860627590e-04,-9.798453050537110798e+00
-4.059510859685248885e-03,-2.400984573617810473e-03,-9.792576828079955220e+00
2.124563179061475168e-03,-4.811183232668686527e-03,-9.802479946274365474e+00
1.014921748666205645e-03,-7.957255127077095258e-03,-9.791469981605700923e+00
2.216587085111776032e-03,-4.437152079970542971e-03,-9.797792628027384154e+00
-2.949196733943594117e-03,8.742907480169165996e-03,-9.797691129154207701e+00
-1.056194174529118037e-03,-6.131018353012367833e-03,-9.789844786981429792e+00
-3.560995181245195026e-03,-1.159421451621722330e-03,-9.801630459928659889e+00
-1.242308824138677048e-02,-2.212204162278106918e-03,-9.802276841796631501e+00
-2.780442021292215543e-03,3.717484103643265477e-03,-9.788320846350663018e+00
4.050189881851734910e-03,2.885617372711205258e-03,-9.795616984603780608e+00
1.290793368605032279e-03,-4.295346014705975386e-03,-9.795089283893855026e+00
7.268163118764610353e-03,3.639365507172656177e-03,-9.796008089628402971e+00
3.202683210863727526e-03,3.702955708087605873e-03,-9.789474479243528648e+00
-5.454075111420091104e-03,-5.027503901328502292e-03,-9.784585613548310690e+00
-9.459878712552280324e-04,8.304903711020536483e-03,-9.796529742868857582e+00
-2.451089652804976354e-03,4.908168785407876836e-04,-9.798579434057591797e+00
6.304061850032966667e-04,-2.304696297030414762e-03,-9.796917578254646486e+00
3.210961902238480565e-03,-7.039180883748132370e-05,-9.793311704314270116e+00
-3.435981771312374491e-03,4.575285608909581726e-03,-9.792338449400171285e+00
8.960824216802193648e-05,6.760986990888694526e-04,-9.800100453439894110e+00
9.167530204131147872e-03,-2.523506577656943559e-03,-9.787801623991487787e+00
-1.175469824839413605e-02,1.052188273976073681e-02,-9.803416957314780689e+00
-2.098575486784767970e-03,-1.255211988651007068e-02,-9.792547664003700802e+00
-2.168637420266628958e-03,4.127445830283982611e-03,-9.795412989115238389e+00
8.676265670458387438e-03,5.318870969213187853e-03,-9.792241366597931318e+00
3.016501867618227254e-03,2.557088470759367148e-03,-9.798046943259306474e+00
6.350350400014085923e-04,1.087798711168004757e-02,-9.795049514303645566e+00
-7.865310022283005659e-03,-3.548600310090206829e-03,-9.799601985661931636e+00
1.021235291196807490e-02,1.006464907117694645e-03,-9.799536837636985354e+00
-5.047830757965395855e-03,-3.058214312912242629e-03,-9.795959684163440429e+00
1.218096996752569480e-03,-3.339187329285967388e-03,-9.796750193172723442e+00
6.382222307002929050e-03,4.026647062119693456e-03,-9.796441472801452832e+00
3.306027304449376744e-03,-1.135852939902522044e-03,-9.793861007981174538e+00
-3.751888340570949578e-03,-1.107675776423834536e-03,-9.792626606253215016e+00
-7.219332820664508751e-03,4.198890386669022583e-03,-9.786566500114711076e+00
1.039427028045015685e-04,2.043504628314670064e-03,-9.786555410099911256e+00
-3.785911890988188488e-03,-3.291096921425381606e-03,-9.788695704548656451e+00
1.443272618757227151e-04,-5.264204415167576291e-03,-9.803296256930483565e+00
-8.000560796170211667e-03,5.927034120028488312e-03,-9.792417933629410598e+00
-4.406673301011262631e-03,3.909653509187995500e-03,-9.808459596452856033e+00
-7.308906961691061417e-03,-5.241045495540296245e-04,-9.797313498212096405e+00
-8.506866857550319030e-03,-1.621003254886167061e-03,-9.792033739066491549e+00
-5.416969423124489216e-03,4.596635963038537762e-03,-9.790295511216019264e+00
-3.846310182954202055e-03,-2.671446251165602703e-03,-9.791851729604399424e+00
-3.397456398718344019e-03,-6.641132877702651122e-03,-9.803715341654971382e+00
-5.837113930988873343e-03,1.057815963916204118e-02,-9.798522654924044062e+00
-4.160768180380362141e-03,2.091887261995073921e-04,-9.786428408856032490e+00
3.074296747781875283e-03,-3.754760285086441432e-04,-9.795390984442283511e+00
-6.171646568387522411e-04,-1.472987587184149431e-03,-9.801281715652505611e+00
-6.582439985090731902e-03,-8.340170705727190494e-04,-9.793011285822760925e+00
1.661044179190639515e-03,-6.930817489642724510e-03,-9.799757130422849016e+00
-5.772645089467721286e-03,-3.389793980170827635e-03,-9.796671264012395852e+00
-3.161484196202621853e-03,-1.099986878995013774e-02,-9.798089427029861298e+00
1.188365166621490297e-03,3.769137499136174328e-03,-9.794440973877938106e+00
-8.022208765478671191e-03,9.164095711330092625e-03,-9.783997960646384939e+00
-8.099082155019797849e-03,3.159757699758116052e-03,-9.799057917856480060e+00
-5.117188128165315111e-03,-1.329055872448162970e-03,-9.801254551485891753e+00
7.574813191439994618e-03,7.416231904401686045e-03,-9.791121182374538989e+00
-1.136654027482572171e-03,-1.086408589872509337e-02,-9.800499909702526935e+00
-2.487460782680137213e-03,6.149468628530900885e-03,-9.792175148071164514e+00
5.003263294852312686e-03,4.741849831048274705e-03,-9.802718294137990895e+00
-2.306814260419383020e-03,1.388666628479540100e-03,-9.795488905790270096e+00
1.350009917116957135e-03,-4.261722088044748481e-03,-9.794267182202551325e+00
-1.169285944083813672e-02,6.942848392251653629e-03,-9.781243423662051129e+00
-3.708664316785905204e-03,3.570355102565300320e-03,-9.797947028107140355e+00
-4.565089690359762885e-03,-2.369825278121637582e-03,-9.796555260675662069e+00
5.935322222331638597e-04,5.169680615885733320e-03,-9.798392977085205402e+00
-4.982569145192768459e-03,-1.345159675584116712e-03,-9.790191417388205863e+00
4.276506083524440199e-03,-7.118482031730034377e-04,-9.790229231132366650e+00
-1.350664087540202722e-02,-9.319398698683822174e-03,-9.792372273733322530e+00
7.389420269363834899e-03,1.443375296463972942e-03,-9.792225808559964051e+00
5.368655451299399715e-03,-1.411927618894971400e-03,-9.794558530599481116e+00
2.462830676287476594e-03,9.337822296654689058e-04,-9.791150224443141425e+00
1.833589544257434745e-03,-3.411659734835011462e-03,-9.795863755972776588e+00
6.343917992816063001e-03,-2.734487021815829814e-03,-9.798883813195196524e+00
-6.018038207811333973e-03,-6.438881568806295932e-04,-9.794509423606786669e+00
7.597646209908546708e-03,1.715013457275308371e-03,-9.797232810536907976e+00
-1.505640893122516324e-02,1.044293789404134899e-02,-9.799421889110746520e+00
-1.758754349426850695e-03,-8.965140057089432055e-03,-9.793081090013258105e+00
3.582903138292594086e-03,6.020162767983928585e-05,-9.786263597314089679e+00
3.310209909037188560e-03,-5.722287507910313797e-04,-9.789746436169897592e+00
-9.041861832671157714e-03,-3.769214246289921515e-03,-9.795731437493847338e+00
-4.378945818324929060e-03,6.269036563002791489e-04,-9.797813915765704706e+00
2.482979942114843346e-03,-1.380885722761503957e-03,-9.783663778964276858e+00
1.135616415511609594e-03,-3.395525615141602952e-03,-9.797050512857627069e+00
-2.563280744985141964e-03,-3.806727908927024884e-04,-9.792832749579753582e+00
-3.278302218597706642e-03,-3.744603977345533925e-03,-9.789500807669179849e+00
-6.295098333758455608e-03,-4.928196639144065069e-03,-9.801370819415726743e+00
-5.215861544534052853e-03,-8.964115595821567362e-03,-9.793588983746598586e+00
5.610105719411541403e-03,2.992689450244145552e-03,-9.794567924959594052e+00
-7.473185363954997461e-03,-3.560534651843467839e-03,-9.794997622709608720e+00
1.470641649223287776e-04,-1.612058912732240029e-03,-9.797039664249068025e+00
7.132303652683876123e-03,-4.901228478654530603e-03,-9.796565861218457627e+00
-5.029201436922292254e-03,-2.822879060403398355e-03,-9.794252815422025193e+00
3.298664107969000690e-03,-4.718419992510086008e-03,-9.799696473794512031e+00
-9.336462509413765093e-04,-1.010233043759359121e-02,-9.794423090055152770e+00
3.295166674881305335e-03,4.806643668262619053e-03,-9.790705448049033421e+00
5.117251429815317630e-04,4.227923723675237541e-03,-9.796994996212450957e+00
3.041042029915729493e-03,2.333489413823083228e-03,-9.805258724725746333e+00
-1.789300760027221458e-03,1.003354099119818481e-02,-9.798191203071134225e+00
-2.942151880559991297e-03,-2.263000255840786745e-03,-9.789652844780112773e+00
3.046917183522643811e-03,7.801035886479851548e-04,-9.789059434568223139e+00
-5.698925579493460680e-03,-1.205970763886523266e-03,-9.793102027718555647e+00
4.409447065938592626e-03,-5.480708876803018796e-04,-9.797033466696998261e+00
6.711276025969904573e-03,3.331982636068781239e-04,-9.799556080773342615e+00
-5.782589156909404178e-03,-8.372080408265857379e-03,-9.791238975130010402e+00
-5.930339665399109693e-03,4.255678645602245860e-03,-9.791947818902260181e+00
3.698510281634679459e-03,-6.453831208546711301e-03,-9.789131264679094002e+00
2.775015316461646418e-03,-7.828244330751148519e-03,-9.800108563984535337e+00
-2.457819952639030137e-03,1.060921191466391396e-03,-9.795100953587324355e+00
-2.255803841780911270e-03,9.478215475590371242e-04,-9.790640053413346422e+00
2.713242139018040826e-03,2.079748212679588537e-03,-9.786067438370746885e+00
6.053716066083994832e-03,3.564354889360067517e-04,-9.789070807886153247e+00
-5.757335986162689413e-03,-2.237237138201349229e-03,-9.795511235487561308e+00
3.954537379574178668e-03,-9.007047373982652802e-03,-9.795577176939136876e+00
1.248349458441362940e-03,2.357036246412387744e-03,-9.791918863010961260e+00
4.977511857503343941e-03,3.696495640087735148e-03,-9.806200262212602325e+00
3.582219011641087168e-03,3.964055576353052272e-03,-9.789503002060298442e+00
7.441000257181895486e-04,1.047208413582667889e-03,-9.795741858086572051e+00
-3.198526516579574836e-03,5.392832757003582396e-03,-9.797876432054982487e+00
3.140876353330055229e-03,-1.003355774002471969e-03,-9.794435954796703925e+00
8.561245717748935903e-04,-1.998194834550323824e-03,-9.791612112309527660e+00
1.781707899368765438e-03,1.459627122263863763e-02,-9.792891367011558046e+00
5.957282698129973559e-05,1.368017751079002612e-03,-9.792551208923178763e+00
9.151645486465074739e-03,-7.902362967549290268e-03,-9.805288077360984289e+00
-2.870391264181733479e-04,-3.713607642443942508e-03,-9.794109221891636352e+00
-6.477927081029210329e-04,-1.473519921991370144e-03,-9.787887749061933818e+00
-4.329627868685068277e-03,7.255215598981542939e-03,-9.791386597025001137e+00
-5.992311768153880079e-03,-4.268074569575994182e-03,-9.792320532019063606e+00
4.270427460689125120e-03,5.819667565682016576e-03,-9.787417582110613523e+00
-4.126887719626985696e-03,-2.601630317195969752e-03,-9.792674472390226370e+00
2.081117254787937226e-03,7.060007610213583744e-03,-9.793773828854805075e+00
-3.745699808756432821e-03,-6.815446286207773804e-03,-9.803270509641832220e+00
1.824185502937259633e-03,-2.017903127872131865e-03,-9.799219203020683722e+00
-3.240240629001262234e-03,-5.744422389943955494e-04,-9.797826625599796557e+00
-7.671979465732644068e-03,1.099866578303565316e-02,-9.793366732892465620e+00
1.023454786135282596e-02,-5.538817336272388106e-03,-9.802742392198044996e+00
4.305704751207629563e-03,4.718466275274301770e-03,-9.792812799693606962e+00
-2.527890754341837777e-03,-2.638696609122022081e-04,-9.785751703261784229e+00
9.278316913384439040e-04,5.517521362081573115e-03,-9.800773874848349720e+00
4.588522066549865705e-03,-2.540128086579394266e-03,-9.800155861073816865e+00
-5.109801922873632302e-03,-5.716495465829769980e-03,-9.793111429451746730e+00
-3.903027696281386599e-03,-5.189586788766258410e-03,-9.793248546916405672e+00
-4.914401951342886078e-03,-3.406329335332631929e-03,-9.798443294911516332e+00
-6.347899360588138721e-04,-1.633387270629521864e-03,-9.791000783111169170e+00
1.870560868931824775e-03,-5.261869525180247996e-03,-9.794439946233437055e+00
-9.134519734609341038e-03,-2.455966125174584638e-03,-9.799849529316498220e+00
6.746491922480834201e-03,5.180971089968897277e-03,-9.799338134996656180e+00
1.951553060876055033e-03,-6.984756430213227840e-03,-9.794061006113846446e+00
6.346081785856074603e-03,-9.174917869647267708e-04,-9.799497709141098412e+00
-2.383965536856259577e-03,2.280358599743845856e-03,-9.800006681849886547e+00
-7.340321450683399800e-03,6.199286612578866137e-03,-9.801887045688879141e+00
-6.436196351327806188e-03,-2.663292983510895384e-03,-9.799886762231828641e+00
-8.241010909460716807e-03,7.118834259029305916e-03,-9.792078904475562950e+00
-7.159919951434068298e-04,1.268470699542906602e-02,-9.799052824400936501e+00
-8.991868499816406879e-04,2.245890013198643086e-03,-9.794700779969588211e+00
2.502830370109179140e-03,-9.352787937354580666e-03,-9.794746282409725779e+00
1.704615826502643011e-02,-1.014032652205360159e-02,-9.799856532880010462e+00
4.355321952874607124e-04,3.942226504814939046e-03,-9.800244895045503668e+00
-8.757051308806607526e-04,-4.066503275533730338e-03,-9.799120421905223921e+00
4.451765721938595599e-03,-4.402459509851534315e-03,-9.803222129487723535e+00
-2.985200171442691126e-03,-3.324326085129546918e-03,-9.799300965573948474e+00
2.562305291916613242e-03,9.752197010298269825e-03,-9.794574389057631336e+00
-6.179775889673598879e-03,4.509556216584859056e-03,-9.793031533012825918e+00
3.288564189991210161e-03,-1.432888736989859548e-03,-9.795752989668461197e+00
7.863537014900228925e-03,-4.069150143027598990e-03,-9.797826703453351271e+00
2.383223119965527815e-03,2.653840462406776256e-03,-9.800776322886015635e+00
-3.093681523802094182e-03,-3.967843814558057593e-04,-9.790146088605212071e+00
1.047386519944315704e-02,8.857755587853063245e-03,-9.800777063622451379e+00
3.427169335143500067e-03,2.369759675803554105e-03,-9.798401586453241663e+00
1.865364907751187150e-03,-4.093684479968507858e-03,-9.795591337318336755e+00
4.822917619699045901e-03,-2.839471636466888837e-03,-9.791979373345839122e+00
1.987338610342441469e-03,-8.454098095873190414e-04,-9.803677051703809653e+00
1.966844999774707611e-03,1.708041911327443400e-03,-9.789620889400129755e+00
3.333101957972665810e-03,-6.843537168446616262e-03,-9.790102127764289008e+00
5.845511421915721394e-03,-5.403318187361711052e-04,-9.791454308463240608e+00
2.182587957730615889e-03,-1.076734236020518778e-02,-9.793228310926473057e+00
7.388304546613850589e-03,4.130484232866653282e-03,-9.794123389045987338e+00
-2.042715681651660533e-03,2.647412242545675413e-03,-9.795683499039466113e+00
-3.920836985641683314e-03,-3.702623042448431861e-03,-9.796507786856073707e+00
3.800442834662980454e-03,7.410445530973518505e-03,-9.785179880052210066e+00
-1.302948334956216796e-03,-1.009957365211472738e-02,-9.789888799304158340e+00
-6.342834629358033889e-03,-1.301877745347017508e-03,-9.787797565604096306e+00
-3.713385983931731700e-03,1.115597555869345114e-02,-9.790788465105437766e+00
-7.339252206077419120e-03,-3.965180336266703291e-03,-9.794311430889839798e+00
-5.533095319634637362e-03,5.303205327954316553e-03,-9.798726249246143993e+00
9.050270242030179334e-04,7.004649343621906265e-04,-9.793930627366247421e+00
2.796438767205405591e-04,-1.465010533584203394e-03,-9.792030524862546770e+00
1.630251432983114562e-02,3.308267416106213873e-03,-9.786864675968036664e+00
7.496787864828018642e-03,1.875910058784019917e-03,-9.797639468950837482e+00
-1.641718265293486525e-03,7.112391274083521529e-03,-9.792225986779479641e+00
8.121337208111596706e-03,-3.545655490227293642e-03,-9.797648429861945729e+00
6.990858564531697399e-03,2.688480758648692081e-03,-9.801770047322715840e+00
3.476933439826541700e-03,9.719218589865375466e-04,-9.794350538275084617e+00
7.966411079652506444e-03,1.351577858616718596e-03,-9.791118512093369475e+00
1.989199587392945136e-03,1.512738237472173019e-03,-9.792197058633320239e+00
-8.030163703624903886e-04,-2.504710094471242297e-03,-9.790628587675794137e+00
-2.035097708355097703e-03,-2.103216007433300703e-03,-9.800035363823742074e+00
-1.130754426392998474e-03,-4.310975606277961739e-03,-9.797919315872418267e+00
3.844171557135986177e-03,5.348904795190025617e-03,-9.801343715112968979e+00
2.070973399258621214e-03,8.341624896375365167e-03,-9.798420470461033815e+00
1.180720586596509985e-03,6.117428326078860369e-03,-9.797930652314589040e+00
-2.455360513889869641e-03,-2.772775201055220000e-04,-9.803344872353328299e+00
2.470703792733447337e-03,7.948726011223750804e-03,-9.794460688445623120e+00
-4.752181101521772179e-03,-4.029032447855183593e-03,-9.788257851041658242e+00
6.740424319738281926e-03,6.485264558495955562e-04,-9.801711726728589369e+00
-3.732038515980209102e-03,-4.444009448952746140e-03,-9.801109488367931277e+00
-2.702152572410615634e-03,-3.891726995279143255e-03,-9.789660490434116014e+00
-7.464197786419309553e-03,-5.918316104956612700e-03,-9.792568373218605515e+00
-3.592970819379255869e-03,7.299573979891818033e-04,-9.784877079488286000e+00
6.909137168274277416e-04,-5.850435246768453945e-03,-9.787832828166324717e+00
-4.216143731988260257e-03,3.333606472353776128e-03,-9.794982273969955244e+00
5.201662252319830954e-03,-7.214214032307801443e-03,-9.797167553748465707e+00
-2.583914641221292299e-03,3.231816490410109426e-03,-9.793536196503010771e+00
2.847573992544223838e-03,1.656639777662846126e-03,-9.790381895131563539e+00
-8.350383204426877620e-04,-3.444981305748215654e-04,-9.792835515908409505e+00
-2.036609630102811062e-03,-1.281831484987125533e-03,-9.801683207342996695e+00
1.058627901865286580e-03,1.595808643241826115e-03,-9.798503114031715810e+00
-6.677515351367822177e-03,6.534380444091314293e-03,-9.795651185932110039e+00
-1.273363744264293003e-03,3.432531070753686063e-04,-9.793505282329009631e+00
-2.238186171730209562e-03,2.683547930735938076e-03,-9.802861448595793448e+00
-1.307185100611715561e-03,-2.368065956908542444e-05,-9.793241856487185260e+00
5.887030304878527933e-04,-5.587690115640486311e-04,-9.796791494810127787e+00
1.866009941527995396e-03,6.197584505564106110e-03,-9.799668083162289989e+00
-4.824069570897671425e-03,-6.876342578766552610e-03,-9.795019271849325193e+00
1.064238764023375979e-02,-2.324855781117821270e-03,-9.796742258414560922e+00
1.532206588211832256e-03,-5.283159808445713097e-03,-9.794288082697468312e+00
-1.213829154895523267e-02,-3.298834203247789313e-03,-9.796970360652268894e+00
3.104991259108013778e-03,-1.110163751510194995e-02,-9.799628652527399453e+00
5.051679961140131785e-03,-9.191273432790100437e-03,-9.790251456085007575e+00
3.872962272059464559e-03,4.048940975058270240e-03,-9.802561745788917591e+00
-2.114711070355132332e-03,3.597383351370848220e-03,-9.798075421405638252e+00
7.454828193333912396e-03,-6.510053014937199284e-04,-9.798555201232847622e+00
-4.662606456638427287e-03,1.685494366375652094e-03,-9.799059816804184919e+00
4.846745362706115536e-03,1.124004827812277209e-02,-9.798176710942913203e+00
2.077691277682773476e-03,-9.905289859591432169e-03,-9.799321495291426487e+00
-2.255482909807317651e-03,2.348680674458248491e-03,-9.794055551485005395e+00
6.603053794456558052e-03,1.627242913716435240e-04,-9.804685115133667139e+00
-4.047667689294323461e-03,-1.662489610084611749e-04,-9.799424493326638341e+00
8.822201461361383126e-03,2.444921411707418665e-03,-9.793651688167548386e+00
-6.695582560743996645e-03,3.855294229775793873e-03,-9.795984848756651431e+00
-5.878927152106361732e-04,-1.916263690092961155e-03,-9.794903606738548874e+00
-6.270868426334004313e-03,-1.282104575728444142e-03,-9.794395064151327546e+00
2.038773148125309128e-03,5.661674422968271739e-03,-9.792965372501473809e+00
6.593592417852504016e-03,-8.143269138077276030e-04,-9.796911682758851825e+00
2.060527586969423085e-03,-1.644180689088208013e-03,-9.793588852034719849e+00
2.326458097329238851e-03,1.452856583815545586e-03,-9.790926005201301408e+00
-8.683646840844946131e-04,-1.174580973937387578e-02,-9.792566056585631173e+00
-8.983276230468972140e-03,7.336001382497071323e-03,-9.794933743357326250e+00
7.542896435550103251e-03,-6.674277068354920843e-03,-9.791759923101446716e+00
5.580938437703813863e-03,-7.483108433111711894e-03,-9.781984873703976291e+00
-9.506294986321644352e-03,9.699775880552081661e-04,-9.786487431244058399e+00
6.665460551259944788e-06,4.140207102840564105e-03,-9.791781274271446733e+00
-4.234913723190192499e-03,2.729351097319184590e-04,-9.791714633052631456e+00
-4.407814674648281167e-03,1.883966047875876163e-03,-9.795014493443103376e+00
-5.798820275538334873e-03,-3.017585856575639557e-03,-9.790967602537643089e+00
-8.100045600051708136e-03,-6.075935362329614852e-04,-9.797989196286696512e+00
-5.361561288162077898e-04,3.854577783062679785e-04,-9.794783252456493727e+00
-4.574515649314947648e-03,-3.849680442578115938e-03,-9.799236903797840625e+00
-1.143425271735618812e-03,1.990722533628491546e-03,-9.795221159877787187e+00
-2.713160662434613291e-03,1.136690629094368058e-03,-9.791847936172235478e+00
3.321819148853364257e-03,2.355628100186169058e-03,-9.793748782860511426e+00
2.581267624355891577e-03,8.320997435414460679e-04,-9.809076848092614043e+00
7.179495353368986130e-03,-1.199706052210287345e-03,-9.803020610380800193e+00
5.645308676921418148e-03,2.711788134592547309e-03,-9.804144650591835486e+00
2.804105245456769806e-03,-2.305886016667340298e-03,-9.797869522202212522e+00
1.905517695675577492e-03,-2.445993953501241977e-03,-9.798817642411126627e+00
-2.680578623863589128e-03,8.322614407600943329e-03,-9.797196879485351673e+00
4.441716707091291835e-03,-1.872700443610865418e-03,-9.794089739377257686e+00
-1.902154475692351913e-03,7.121370982284329311e-04,-9.795435983032419358e+00
2.467589593664261480e-03,-4.698523923472905074e-05,-9.791410232651003298e+00
-7.022582516489849457e-04,5.345134940114009726e-03,-9.791359956174378709e+00
8.661328480698100504e-03,8.496515378614779993e-04,-9.794972669587293623e+00
-3.332070839609398410e-03,-2.100163184367129416e-04,-9.794409932315248923e+00
1.059207874518906019e-03,1.090800919991885250e-03,-9.794936458527184087e+00
3.425721511124638768e-03,7.667498403128778753e-05,-9.798074737669209000e+00
7.163300823962530199e-03,-1.551971076741680364e-03,-9.803543302230691481e+00
2.802570872798969270e-03,2.522651031764832838e-03,-9.795563900753805342e+00
4.575078790747952253e-05,4.878660662333997484e-03,-9.796945956452905335e+00
4.991591944136528590e-03,2.409101587657269498e-03,-9.790167469533438194e+00
1.480227971230026283e-03,3.105924027527048816e-04,-9.796328043813188557e+00
-5.030728010980280857e-03,-3.431689524101932780e-03,-9.795162704766555706e+00
7.132801938965569605e-03,1.657439450414412282e-03,-9.792768860276524379e+00
1.708723258688668676e-03,5.365929243776251974e-03,-9.803260075550104702e+00
-1.425479324302488405e-03,-7.548529512406840052e-03,-9.795358552820204068e+00
-2.666894975251470675e-03,4.697021412310597999e-03,-9.792180895524891682e+00
-8.330484639585370322e-04,7.250999501909070671e-04,-9.797915906329954794e+00
-4.105570549571944602e-03,4.801013828052890821e-03,-9.791582318858344181e+00
-5.136423665771001901e-04,1.890803965905275396e-03,-9.792042537105869471e+00
-5.126313608092528985e-03,-5.462347163948040249e-03,-9.795571487269601363e+00
-3.751424459215499125e-03,2.887692578707262529e-03,-9.791398453309268390e+00
2.520423361478622577e-03,-6.504009784443896824e-03,-9.793848312396390199e+00
3.383909603072849520e-03,-5.657275145612213930e-03,-9.788183126804954171e+00
1.066126753096669801e-03,-8.174319402064453332e-04,-9.801157948974809742e+00
3.086596862784340110e-03,9.422002034734395116e-04,-9.797075709615057804e+00
-5.720781900707131362e-04,-5.652997164886817624e-04,-9.793437226844567078e+00
-5.390939594348156602e-03,-3.701468238290276692e-03,-9.798816774343290348e+00
-8.250712640044391075e-03,-5.894437244153180079e-03,-9.802865598906405964e+00
6.694545205678394985e-03,-7.462259441909111467e-03,-9.796306073310951490e+00
4.336976166947824687e-03,2.416749873533539494e-03,-9.794657653215088189e+00
2.483847208089061138e-03,-9.897479672878856626e-04,-9.793649592118178759e+00
3.328035478584141955e-03,-3.414129594661849832e-03,-9.800371385859005358e+00
-2.379986543819356901e-03,-4.127963738816181963e-03,-9.791949988565388452e+00
9.815363872251628256e-04,-4.662770000749214168e-03,-9.791530377723757894e+00
-5.720369672216497198e-03,-4.328523985983966267e-03,-9.797216695945435205e+00
4.232597907703204536e-03,-2.962768783142073065e-03,-9.794806249449196756e+00
-7.227821267700987838e-03,-2.915175373705145706e-03,-9.789099099420729644e+00
-2.180667970426072248e-03,-8.465022257223693515e-04,-9.797774963306384421e+00
6.317608288491090122e-03,-5.120231666758076963e-03,-9.787479048921552405e+00
5.515868014885925985e-03,9.253962399115625223e-03,-9.794171604340990100e+00
-5.750139751441807681e-04,2.992834943244020857e-03,-9.796352820623310365e+00
-6.612097008613681322e-04,-2.128749507614075866e-03,-9.796353424665667831e+00
-3.399220391392190465e-03,8.032697984168566188e-03,-9.803782677640038301e+00
-5.987086656788870656e-03,-3.718788184380935648e-03,-9.789631893678027552e+00
-3.670104982623257489e-03,5.942529035198554788e-04,-9.800030132896610624e+00
5.646975625025371995e-03,-2.553661514240705178e-03,-9.801617777890914596e+00
6.429240418933195554e-03,-1.436381793514856066e-03,-9.792545430054891753e+00
2.642691120420022442e-03,8.356707120738004341e-03,-9.803217597646799675e+00
3.718328568313814756e-03,9.585338717875301409e-03,-9.802704316977008503e+00
6.095653727544701490e-04,1.285721651906278394e-03,-9.802884465017466908e+00
4.121666995037968212e-03,-8.667804208880669579e-04,-9.794709406114584738e+00
1.804282656810960806e-03,-1.600326962409028561e-03,-9.797394080091606838e+00
6.197175351096724689e-03,2.966381939267293856e-03,-9.793379888317241821e+00
-2.422941768851336834e-03,7.461661351971243458e-03,-9.795697290281461633e+00
-1.988799739510019489e-03,9.174057805327899204e-04,-9.800135430341404330e+00
7.905428740028867113e-03,-7.754949236789027318e-04,-9.795355299485919431e+00
5.391106642266184357e-03,-1.752450742617219469e-03,-9.788018426551980511e+00
4.834402059296735721e-03,5.909295589724892356e-03,-9.796808683966965248e+00
4.737884215620383893e-03,-6.181821118916054625e-03,-9.792325407271436077e+00
6.091526390408245548e-03,-2.878695121875480319e-03,-9.792453876192183770e+00
-7.315502888209083525e-04,5.128872514974651929e-03,-9.785814254588116157e+00
-4.023709211647664118e-03,3.660427131028872166e-03,-9.798443721814715346e+00
-2.451213476669743437e-03,1.300173464917087638e-03,-9.793105669449575501e+00
-3.513946339635909671e-03,4.670315664931705586e-03,-9.788245103712768014e+00
1.244990481868609930e-02,-5.116965098464672408e-03,-9.784268828887329406e+00
2.013670911657845525e-03,-5.743734355728445304e-03,-9.801475636656602930e+00
-3.888455990033145822e-04,-8.148560808575464401e-03,-9.790138381289562375e+00
4.056004318777911718e-04,-3.895699868404350029e-03,-9.794555380368320741e+00
-4.677714424359517495e-03,1.588247282388261525e-03,-9.800347359535253489e+00
-1.856810215625489331e-04,6.116167066601868596e-03,-9.803275497238272962e+00
-1.551751962223376149e-03,-1.226747112143395085e-03,-9.793559539562009419e+00
2.443953522756505629e-03,-4.587131525798106811e-03,-9.790976117570439285e+00
-6.172548005908399561e-03,5.257686675283890351e-04,-9.793472478810601345e+00
9.244496792205124033e-03,5.200553004891205616e-03,-9.798401959078670842e+00
5.163565706037718910e-03,3.452067595963236404e-04,-9.788986514548394524e+00
3.204892277982895367e-03,-1.800523070627599960e-03,-9.785120916986583595e+00
-2.586964717069959157e-03,6.995524429875223452e-03,-9.782447837120340495e+00
-1.771088653310164086e-03,1.509846281482111726e-03,-9.789859115059174499e+00
-2.413441328840758120e-04,1.721192803032276170e-03,-9.789075928712930974e+00
3.060047599945007937e-03,1.622733150670904040e-03,-9.799966826343261772e+00
-2.703734681218766030e-03,6.150944839624664269e-03,-9.789771073443633398e+00
-1.885440317622243339e-03,-1.409989759194263826e-03,-9.789561277591632305e+00
4.433454875871075188e-03,-1.467787667113990913e-03,-9.794336477336804236e+00
1.076659627576822317e-03,1.293468515376264630e-02,-9.812237887367396993e+00
-6.968108677820512159e-03,-9.610856132133350355e-03,-9.788457746800983017e+00
-2.511892588611864706e-04,-6.073239019418572027e-03,-9.796059364717548235e+00
1.265855678189825237e-03,1.719181341804022984e-03,-9.797608792304934866e+00
2.119886534234611056e-03,1.154965644183177922e-03,-9.802092293351098107e+00
3.556797249242659061e-03,-5.945801879786776975e-03,-9.798001541275139559e+00
4.068700750088020957e-03,1.110629245972231775e-02,-9.794041506826827614e+00
4.086029276418781230e-04,2.287909745055017111e-03,-9.798566011345974047e+00
1.352326217581111337e-02,1.726995095356685488e-04,-9.804844249955639413e+00
6.899264563422722978e-03,-1.639979833541882069e-04,-9.793459903872072658e+00
6.800815508290380040e-04,-1.422652565467279336e-04,-9.791341456036612101e+00
1.088520433390130840e-02,1.936216107211047917e-03,-9.794144471556736065e+00
3.280968990870733112e-03,3.823221944920409787e-06,-9.795780393932997043e+00
-3.049555278937773287e-03,7.599191746143359703e-03,-9.792089432924496961e+00
4.486041978511191852e-03,-1.646137571654906996e-03,-9.797515508378364046e+00
-5.654192137531475516e-03,-3.271149927261996783e-04,-9.801715285468363348e+00
-5.924252612086695425e-04,-3.010380086738701291e-03,-9.792327004646770305e+00
-6.220923616087422996e-03,4.908474173011496099e-03,-9.790109382383143100e+00
2.328638609802354941e-03,6.755270801851850394e-03,-9.789429621827787642e+00
8.328170056475708849e-03,-1.406713981507282975e-03,-9.800426578969227975e+00
5.548081485819105060e-04,6.810522582051658884e-03,-9.795022161808430994e+00
-2.204606707636975072e-03,4.780120477839150742e-03,-9.797107535407146628e+00
-2.226271562967443811e-04,-2.380339770120191555e-03,-9.791597178723444372e+00
-3.423875304628813763e-03,-2.767979659642014461e-03,-9.785497294533863410e+00
-6.872631391934212221e-03,-4.171934557217785340e-03,-9.798210388248508096e+00
7.302622964031985249e-03,-7.958152727922896894e-03,-9.792534459751134790e+00
2.281568304159807895e-03,1.392073621580056488e-03,-9.793422198481474439e+00
8.211452819262094957e-03,1.319049790272758347e-03,-9.793279351114490439e+00
9.468736966794617186e-04,1.435695856428612560e-03,-9.800735524665055820e+00
-8.272996038290184734e-03,-8.553106614963270835e-03,-9.798689944270906338e+00
-6.111860342952944139e-05,4.682790491265072989e-05,-9.797441045459137854e+00
4.978600341295501969e-03,-3.911453197167359327e-03,-9.790781998094239214e+00
1.590385814578373002e-03,3.430844818848425432e-03,-9.798068342860569047e+00
2.411105665657494162e-03,2.755847749549397881e-04,-9.796070209334557077e+00
-3.176100467751493631e-03,3.793505319233168947e-03,-9.798359493522353247e+00
2.707183561334228390e-03,1.263318412749895713e-03,-9.794802018994543502e+00
2.340288532416522592e-03,-9.175583569718228283e-04,-9.794726774588255580e+00
-1.459235449901891265e-03,1.096098573781813289e-03,-9.794434745773349604e+00
-1.394318117447943157e-03,9.695209628161012561e-03,-9.795039676637793846e+00
3.036537081944089712e-03,4.174182651223646429e-03,-9.792632826149125336e+00
-2.890588163005730800e-03,-3.299084835057894231e-03,-9.796180381886848920e+00
-4.946401852119643302e-04,1.049005707159501302e-03,-9.797439935687759061e+00
-8.584184649276167464e-03,5.626620873303784902e-03,-9.791944983370180822e+00
2.200043784600011314e-03,-7.938144394761318529e-03,-9.778963517309318121e+00
3.490892703624130962e-03,-7.314262336907769238e-03,-9.796424891952257852e+00
4.993608452876996395e-03,-2.848955723677505420e-04,-9.800805666257408788e+00
3.335187158185309343e-03,-6.487269038150218162e-04,-9.793730892867934301e+00
1.699167840022414004e-04,-4.838813932440611670e-03,-9.807060377929506245e+00
1.349583230449702626e-03,5.299446624712023622e-03,-9.786837045924317025e+00
-4.044295838573567191e-03,-6.254040365067907968e-03,-9.797878073378580410e+00
-6.822289218462152492e-03,-5.000197029583970318e-03,-9.796810691231533141e+00
-4.044334710918973987e-03,-2.170571023307199098e-03,-9.800971337295255381e+00
-3.737758816478613981e-04,-1.195705090491865118e-03,-9.795396215513443750e+00
-3.616118085074609880e-03,7.105886763842610317e-03,-9.801420604941307957e+00
6.363150630138814101e-03,-1.362883461676909005e-03,-9.795684766876377125e+00
-4.065850013123139704e-04,6.104026357027246552e-03,-9.796505119227418845e+00
-1.232542394674161247e-02,4.681291235446962025e-03,-9.802415377074524372e+00
-1.218531780775589275e-02,-2.139917249785213533e-04,-9.799667627989768093e+00
-7.681547430653534042e-03,1.944353230636279399e-03,-9.797741811789391519e+00
-1.544595529547768869e-03,5.568018437250541429e-03,-9.792654751132440438e+00
6.440377143218259035e-03,2.646520835458605371e-03,-9.795375290125566181e+00
-3.090870319607527845e-03,8.353453099378080685e-03,-9.803672727991701308e+00
-1.840557730736745896e-03,-6.059337532002983693e-04,-9.798665816084607627e+00
1.037892106399933463e-03,-8.613239988441150508e-04,-9.788579966880805117e+00
1.803056113079267017e-03,7.067383983694346030e-04,-9.794621626430476624e+00
-3.540606288421439905e-03,9.832336645868583122e-03,-9.799443130067331253e+00
7.572869382474959991e-03,4.671483494491592350e-03,-9.797170564440509821e+00
-4.491247107994272673e-03,-5.128593271081409791e-03,-9.795617877101927107e+00
7.684155842420815202e-04,-2.539226108926982348e-03,-9.801004282905706688e+00
-5.439419559627290714e-03,1.505359017816479254e-04,-9.794988036443184498e+00
3.954210294386884331e-03,6.614183880128213407e-03,-9.795912791621502080e+00
3.946210597769843516e-03,1.901010030374987751e-03,-9.800171690898926258e+00
1.424691313690266753e-03,2.258602333132246794e-03,-9.799409498160423837e+00
-8.523259472566953061e-04,-3.732980851755559205e-03,-9.797700354483199092e+00
3.619382150298555267e-03,7.719727239543802775e-04,-9.797497081990798051e+00
7.671970496840600090e-03,7.399002563851976404e-03,-9.798079162124871289e+00
-2.912808528179568462e-03,1.936163805638605817e-03,-9.805824432763351695e+00
4.325494903192852146e-03,2.565938190561678337e-04,-9.792613683505296152e+00
-3.384926416273474799e-03,-9.045300221825022802e-03,-9.793304202200129538e+00
-5.231618994080085988e-03,-3.084436903500338643e-03,-9.785643674206687237e+00
-4.789719607761368366e-04,-4.860403110321028473e-03,-9.798948651107927788e+00
1.066162529999398374e-03,3.425011961225988069e-03,-9.795447886144225791e+00
1.257079288885052520e-02,8.026693343697079153e-03,-9.782713951814455910e+00
5.015160720722285081e-03,6.151244254500041857e-03,-9.793519355468026433e+00
-2.947479908974282373e-03,1.025048307434251599e-02,-9.783355801843901745e+00
-3.534988168424658527e-03,9.045627427972186213e-05,-9.790606828258130889e+00
1.580597250459296523e-03,2.296457752569726167e-03,-9.785378392462016350e+00
8.540867586968495240e-03,3.798510875854509746e-03,-9.794903769062084820e+00
6.903855357148438619e-04,8.102272504210254484e-04,-9.794132373515896717e+00
7.466209179258486220e-03,5.622095334578421089e-03,-9.790427272997746400e+00
-5.660432413428407791e-03,-2.282098551085838620e-03,-9.799881899103134231e+00
2.202740174381261507e-03,2.859980990468519949e-03,-9.789043697454895110e+00
-5.787880299463636635e-03,-1.132852501591803326e-02,-9.797509470354720307e+00
-8.011433716639442329e-03,-3.661782667048892287e-04,-9.787298262802650584e+00
2.917983697401926868e-03,1.674038722382284938e-03,-9.788446268885541812e+00
-4.080113742508338463e-03,3.176710480527665525e-03,-9.790806088503794413e+00
8.974934516651916078e-03,-8.736145240490135466e-03,-9.782089386781041895e+00
1.005432972531385182e-03,-3.042546452139379461e-04,-9.796147162385935303e+00
4.102931172780850265e-04,9.155323567118359152e-03,-9.790850341284363267e+00
-2.005894264859455368e-03,9.757489346310641021e-03,-9.792854758312389052e+00
-3.753099261958052230e-03,-5.989639083620581974e-04,-9.793881119637852350e+00
1.847128009362057968e-03,-2.549622638615432757e-03,-9.793157916367295712e+00
-2.624863537118618528e-03,-2.048182940393465309e-03,-9.787928986910088724e+00
-8.115239424577980198e-03,5.306392503467178591e-03,-9.792314780392775475e+00
-2.356299308299272897e-03,-1.240413499405655477e-02,-9.796730858571690348e+00
-9.727383678105876175e-03,-5.440340419856482153e-03,-9.794071525305753312e+00
-2.921595384403302079e-03,-4.623385723449299420e-03,-9.793174983676312451e+00
-5.734438220637124578e-03,-2.501732285667946330e-03,-9.791366547982436330e+00
1.040036158007487388e-02,6.709652010666196202e-03,-9.792915057705547710e+00
-6.828977554639537820e-04,1.695424197685390473e-03,-9.796007873527209142e+00
-2.249167274583106085e-03,-1.050850012873816471e-03,-9.786350851149617114e+00
6.390118713797736383e-03,-4.981615983946427809e-03,-9.790115173746871235e+00
-7.981206026733741327e-03,-7.153080726212931832e-03,-9.794475226730039452e+00
6.964720449445177888e-03,1.853761706696894574e-03,-9.792992381658910617e+00
-3.012111758194090669e-05,1.231689507056128209e-02,-9.786201835458147258e+00
5.533594316357839851e-04,1.593478212190485403e-03,-9.794363451386788100e+00
-2.541228324898443195e-03,-4.277763166049343077e-03,-9.798079814709486968e+00
6.801936482178121829e-03,2.855604027693353229e-04,-9.796055194620562290e+00
-7.508611161993877618e-03,-3.848443555770803947e-03,-9.787871616019469201e+00
3.735521491229793498e-04,-2.600730981315578158e-03,-9.792185825799558430e+00
-1.919508957843646521e-03,2.195854684165637460e-03,-9.792760862193119920e+00
2.920046787617249558e-03,-4.951137533462741415e-03,-9.792777362098652461e+00
-9.239451925709640107e-03,2.919856333090971225e-03,-9.791558954633407197e+00
-7.856878392161925628e-03,-8.054169799203658676e-04,-9.790761084608483600e+00
-5.755357535383532003e-04,-9.934251806626086950e-03,-9.798854161707485133e+00
7.599025798834340394e-03,-4.189555107656134196e-03,-9.799482145569783142e+00
1.109665261471209398e-03,-1.136731108354028554e-02,-9.792087143235711721e+00
-6.780952622086814166e-03,8.528606541116871950e-05,-9.799365958375181762e+00
4.033177796787413595e-03,4.885799626961992437e-03,-9.794073764697092344e+00
-2.336822010394892313e-04,-1.173479545162567491e-03,-9.792054576788263631e+00
-3.181335636026974990e-03,-6.422650071768065683e-03,-9.785592004145014400e+00
-1.082289079807399745e-02,-8.646804164990827763e-04,-9.800622993858810972e+00
-1.617518069012573514e-03,3.641415263022234911e-03,-9.799122884923624710e+00
5.612004590265012513e-03,-3.122788440653180542e-04,-9.801837725886953123e+00
-3.148628649732359598e-03,3.402059846230924773e-04,-9.784942416533207066e+00
-6.907816638845772073e-04,-4.681802981515105131e-05,-9.800569809121444820e+00
1.440023099705945884e-03,-1.351263980338007436e-05,-9.785795370909999846e+00
1.160110005901939531e-03,-4.081829125018892300e-03,-9.800248150493809263e+00
-7.769829382893758164e-03,2.898425019355304190e-04,-9.789952910675880915e+00
5.138392781690035056e-03,-5.351529419969225029e-03,-9.798696971064540406e+00
1.274117980600975811e-03,-2.930742607034444482e-03,-9.789970022157469032e+00
4.150203932303859859e-03,5.473209893695743858e-03,-9.797236360658418519e+00
-2.463702999564795423e-03,1.078217335572912057e-02,-9.797460758494141331e+00
-1.074260827697488124e-02,4.268199014677153888e-03,-9.790951759446363312e+00
-5.157987193093883926e-03,-4.802217637967451554e-03,-9.796731370036940945e+00
-5.843554157667712155e-03,4.643850925925861739e-03,-9.794584643452218131e+00
-1.140400253553540758e-03,7.002502385627256548e-03,-9.807493667726429720e+00
1.000312039709299987e-02,-6.218192060045328942e-03,-9.787149766761171321e+00
-6.711920385525017851e-03,4.185314325061598173e-03,-9.800552547656472768e+00
5.767738782275779429e-03,-6.765219422459602290e-03,-9.785183864519536812e+00
-6.171262500197889460e-03,-5.454502753986426424e-04,-9.802815562202962241e+00
-8.131580641005501514e-03,-2.422319102271174203e-03,-9.787267187096645671e+00
5.393343354500209665e-03,-2.200581816302898171e-03,-9.794109177835890634e+00
3.533130672829155449e-03,-1.312709742171646416e-03,-9.801856948402674519e+00
-5.824402790336086731e-03,6.896385206307273016e-03,-9.800140449726232106e+00
8.761514160864595710e-03,-6.187512460217926315e-03,-9.799042475812779429e+00
1.178690469093023746e-02,4.510528452859768542e-03,-9.793646359733271467e+00
-9.725854212224209700e-04,1.426787930511670428e-03,-9.797089781571145295e+00
1.052532893972683761e-03,5.064525104004091206e-03,-9.790541063309035508e+00
1.141039850554966244e-03,4.589853535402099033e-03,-9.789561477738665474e+00
-6.757946408355644356e-03,2.708728661875949104e-03,-9.796480271877248569e+00
-1.478695104683480340e-03,1.059286934171026207e-02,-9.787360185440402205e+00
-4.819350108808520376e-03,6.320303910909241471e-03,-9.790532842364113364e+00
-2.067731652647677933e-04,-2.054190340246902276e-03,-9.793309778933858567e+00
-6.278355291080932581e-05,9.008720463939077702e-03,-9.800241020774105749e+00
-1.417429561448237943e-03,3.312152855297394172e-03,-9.790949035763018671e+00
-4.260151499101503397e-03,-3.543632070992563943e-03,-9.794715319420518540e+00
-6.464735270616002796e-03,3.144350431300467312e-03,-9.790337942960306350e+00
-1.159837130489757388e-03,6.687089104774624100e-03,-9.788883227788360841e+00
1.106226798633101575e-02,-1.892186698767369833e-03,-9.807464966240836191e+00
6.596608435418223945e-04,8.431932715264338699e-03,-9.795422160488488572e+00
-7.288182370994592506e-03,-6.808560702668078196e-03,-9.788201622999077145e+00
6.560812493367679027e-04,4.043367287434324574e-03,-9.793664483801560294e+00
4.944390136418585525e-03,5.253559060814341937e-03,-9.796091598841710990e+00
-5.572984245933757311e-03,2.280865382855051891e-03,-9.793029580389104538e+00
-3.822440043250302944e-03,-3.089277283971778466e-03,-9.788148456730842994e+00
-4.349053892762113661e-03,6.033557604860542017e-03,-9.796121399149557263e+00
6.231074425759820269e-03,4.956171032799523181e-03,-9.800902485880623516e+00
-1.776866372812569220e-03,-4.672759047288270809e-03,-9.805165437932979344e+00
4.315999226745147015e-03,-4.866903085031754755e-03,-9.796763413501372142e+00
-4.148881934354566037e-03,6.080277213528465126e-03,-9.791326666736704709e+00
7.969936107040139286e-03,3.349972061549869474e-03,-9.793023094697186792e+00
3.739392700449011529e-03,1.535770340143246247e-04,-9.798429869351913624e+00
-5.063350238949581791e-04,2.584357582083332506e-04,-9.803745635793788438e+00
-7.285296487474858572e-04,-3.194610267310941682e-03,-9.791521706660738289e+00
2.523025695618946913e-03,5.734804272199164714e-04,-9.797719924253923907e+00
2.400941303728889014e-03,-2.187947147034555520e-03,-9.791487908586258726e+00
3.291903822796377575e-03,-3.742412642566811474e-03,-9.803661439050287640e+00
6.042554591471151898e-03,-1.370296154221094676e-03,-9.792541029845491352e+00
-4.216406146471898646e-03,4.011091178618889259e-03,-9.794067435978252689e+00
2.412060452730152137e-03,-1.715598451352193287e-03,-9.803586288531649373e+00
-6.941022167241579777e-03,-8.863672221041523150e-03,-9.790848019202732289e+00
1.014107103567759259e-02,1.185431335248895946e-03,-9.804773613192713455e+00
1.221639901522303265e-03,3.128641508999377083e-03,-9.792641805838842473e+00
-8.335472395661094186e-03,7.525917395865625893e-03,-9.798920734890346651e+00
-1.156699393995724466e-03,-4.082963404858177582e-03,-9.793981529522346463e+00
-5.000869170598695561e-03,-5.333021163628970905e-03,-9.793455087611020460e+00
3.134487104456776165e-03,1.174132423166548934e-03,-9.792396528232666597e+00
-4.001716287786392587e-03,-6.194738354016628493e-03,-9.791696185435231570e+00
2.165805093004241275e-03,1.005374467528172625e-02,-9.803110053538830471e+00
-3.835919736450092883e-03,-5.562788208006212015e-03,-9.792861591594991921e+00
4.926054377647806279e-03,6.179568738690815848e-03,-9.796844490446780185e+00
-7.455189289804660391e-03,5.404494390509865685e-04,-9.801451336781664025e+00
-4.186918735105247917e-03,2.220978284517362549e-03,-9.787769715610671994e+00
3.591723495570548798e-03,-2.916274433368994719e-03,-9.792290076120510278e+00
5.461668437914575513e-03,-4.162284253808350674e-03,-9.790625443658917959e+00
4.403957625257399686e-03,1.011019205574771986e-03,-9.790683900422203934e+00
1.445058126631360495e-03,2.844865672777733070e-03,-9.804670359318196304e+00
1.969732378139152015e-03,-1.215058479334606492e-03,-9.791826314056482516e+00
4.870944016823003375e-03,3.323304162260702719e-03,-9.800979974314563137e+00
4.460399777206143501e-03,3.418104318337720268e-03,-9.794707813075483216e+00
4.315370369472261609e-03,4.605211745279491988e-04,-9.801778267137462919e+00
-2.769068602616100213e-03,1.858141591852325181e-03,-9.797928304203844974e+00
1.849494190511493221e-03,4.039636505572020975e-03,-9.792750234012217447e+00
4.023801344536052926e-03,4.670615765682257538e-03,-9.797205952936042905e+00
-1.119366298992886810e-02,-4.381956501964915382e-04,-9.800382533997291645e+00
6.125526492509830723e-03,-1.958184064191408232e-03,-9.799995584131819371e+00
8.464942070997587623e-03,8.236234460677732119e-04,-9.792900814810870713e+00
-1.657805919732678081e-03,-9.244538850684837737e-04,-9.801160684531781797e+00
3.990706866614514639e-03,-6.360121898045680401e-05,-9.789157934143693396e+00
-5.164431879035834283e-03,6.776807717442991444e-03,-9.799584082578615352e+00
-8.660333050801997251e-03,-5.122509687210894877e-03,-9.805243143275504281e+00
1.448984379435115872e-03,-6.575039824930299821e-03,-9.795926098937457027e+00
-4.001818800498706252e-03,5.404400003480437469e-03,-9.795246969841146623e+00
-9.783302047380548067e-03,-1.389555265203660205e-02,-9.802529186262313843e+00
3.769325649809307619e-04,5.694106557583108151e-03,-9.794239716868549550e+00
3.235398708790747455e-03,-4.078371482598989323e-03,-9.799097143088829398e+00
-2.342877604323338053e-03,5.733665637193023808e-03,-9.789242944526625578e+00
-8.446132407761719214e-04,-2.157287964060094695e-03,-9.798565182208070823e+00
-5.088737492915745841e-03,-7.125436080684657489e-03,-9.787824940244473026e+00
2.381973892271528268e-03,4.617116171731792083e-03,-9.799913356638624506e+00
-6.061499481365278073e-03,2.954021567178328426e-03,-9.788970734914535399e+00
-8.692441756504899059e-03,4.614487229726741552e-03,-9.796826466589511284e+00
-7.690889804383723057e-03,-6.437425004621774409e-05,-9.798965243882326703e+00
-2.832920910726232765e-03,-2.368570990985987678e-03,-9.796292052722272103e+00
-1.453330833432504290e-03,4.431369042912318770e-03,-9.787944172290547584e+00
-5.262407056527880229e-04,-7.593794159199332818e-04,-9.799118660403117076e+00
-5.314766624398042233e-03,2.763414784946019269e-03,-9.797269358713332821e+00
1.824052791472665670e-03,-1.726802569022242891e-03,-9.784999704127379516e+00
5.104323138266408759e-03,2.475682188060659809e-03,-9.803360537067224101e+00
-3.025701260928197883e-03,3.446323270979392839e-03,-9.800493717371308477e+00
-7.031821256306588531e-03,-2.374287784819425692e-03,-9.804995547466994310e+00
-2.612711282049570965e-03,-6.674148362032489464e-03,-9.801838311664818448e+00
-1.359857242661328004e-03,2.904951598449547964e-03,-9.800924534008496281e+00
1.575334916844745589e-03,8.621770491870217254e-03,-9.793412510671526405e+00
2.314063761647811978e-03,4.342250846594433202e-03,-9.798825745422924172e+00
5.122009358192687600e-03,7.698933504127942334e-03,-9.790042555548728487e+00
1.472329244415722773e-03,4.458386064372906257e-03,-9.792137431811841708e+00
-9.088168463598104985e-03,-3.891227377044767077e-03,-9.791365837248235948e+00
7.738876223309433013e-03,-2.427920262446119169e-03,-9.796479704793501497e+00
-8.882209361589549386e-04,2.365659390332082023e-04,-9.800910438748234199e+00
7.654805759521308463e-03,5.330884062089286113e-03,-9.795871748211174790e+00
-5.631537220442555964e-04,-3.694256392697136890e-03,-9.797832461373277013e+00
-1.814732961402612576e-03,1.001828370585771191e-02,-9.797965969897342475e+00
2.280771844793726740e-03,-1.848760823573206884e-03,-9.794626334303778492e+00
2.471542061936268689e-04,7.633235033199375040e-03,-9.793836258944601525e+00
-1.023760647961466028e-02,3.324058348268610959e-04,-9.800891534776541292e+00
-3.921571598935337630e-04,-3.559002201845098707e-03,-9.790596294795809840e+00
-2.726676565916863210e-03,1.545217240738016792e-02,-9.791756249229562670e+00
-5.724045659004406254e-03,-1.931270811667935242e-04,-9.791277177621264372e+00
9.804940214874805285e-03,7.254466387981068926e-04,-9.791223594944877817e+00
8.406351237131907267e-03,-2.694289991125033926e-03,-9.797504511602571853e+00
-5.309224492613158356e-04,-3.976632565875607567e-03,-9.797790476092233192e+00
-7.233614278612502183e-03,7.782361557245101417e-03,-9.787418699308215508e+00
7.421467562691506405e-03,2.554698604898663922e-03,-9.796171981727006539e+00
2.519769086544291093e-03,-4.052698647504583349e-03,-9.791530046519111963e+00
-1.032848008099821651e-03,-1.011204497333361048e-02,-9.791368822534169070e+00
1.639340970677647833e-03,-1.120169164174039233e-03,-9.786235991928615263e+00
-4.383876823530358582e-03,-1.468935214124933919e-03,-9.801662357086224020e+00
-6.978661130679317563e-04,6.588998241650862939e-03,-9.796825957561551945e+00
-4.856567079375827094e-03,-1.439624287341251946e-03,-9.795679786313717941e+00
9.138121229507217835e-03,-4.631247916186321915e-03,-9.799132197553843682e+00
-2.570266902777796833e-03,3.602740668982112870e-03,-9.796167216518998799e+00
-2.938124139529233294e-04,-7.280954203085158571e-04,-9.790134159338112596e+00
-4.572618064771875011e-03,-2.896658705178109354e-03,-9.797427955294434554e+00
-4.101610201016291611e-03,8.966247091073407168e-04,-9.793162264816361429e+00
1.104123169014765765e-04,8.490107088593960502e-03,-9.796446353433902132e+00
-5.545240093317548892e-03,-3.679224641771514331e-04,-9.794343631725938693e+00
2.276838621291123362e-03,1.494642097671215319e-03,-9.797044368855301499e+00
6.310563325785116702e-03,-1.081348374147330944e-03,-9.792953692972469426e+00
2.193863943965225320e-03,-1.108780441591696768e-03,-9.800108811538731146e+00
3.283168999456113728e-03,-5.871874239087740074e-03,-9.796751251266496041e+00
-3.454687428782681792e-03,-3.728719527498944829e-03,-9.801912726302884238e+00
-3.426243053593549560e-03,2.638782472438121283e-03,-9.790220767160763060e+00
9.572861414554027391e-04,2.193016675706826752e-03,-9.809104361679434447e+00
-5.495359110017832092e-04,-4.268927400311801554e-03,-9.801822833926095768e+00
-6.485665533051922747e-03,-2.001804143396677602e-03,-9.788043029265503847e+00
-6.779960463080356853e-03,-3.332100527722010787e-03,-9.792838502238723208e+00
-1.502314650738887074e-03,9.454353066550277634e-04,-9.798556751479619464e+00
1.934731109222757872e-03,3.714374485529154529e-03,-9.797853663955423897e+00
9.492719224660505634e-03,-2.075407734599893101e-03,-9.794044071272622887e+00
-3.128094223866866117e-03,-3.266580103560763637e-04,-9.793248773776465299e+00
1.686442838560799160e-03,-4.203263005351712614e-03,-9.796111180385402406e+00
-5.833698244277835815e-03,3.206910246976789596e-03,-9.797779000433287422e+00
2.749334935946401957e-03,-1.409796631582800434e-03,-9.805397769679391473e+00
-1.040190666532742492e-03,-8.167345191058441103e-03,-9.791018693497825609e+00
5.380995923303326768e-04,4.357644657922422199e-03,-9.794166632308316522e+00
-7.564001514841981431e-03,4.979727663100596766e-03,-9.788609487639693185e+00
-5.514803791830517367e-03,5.024936426686204410e-03,-9.797192768363702342e+00
8.827107478058298512e-03,1.573937292323146725e-04,-9.789901722781436888e+00
-5.374799238317184980e-03,-8.840801293140411812e-03,-9.797523693320137284e+00
1.168976416548879547e-03,-4.189815153740159004e-03,-9.802544626380861104e+00
-3.572362606754383215e-03,1.959421292187214347e-03,-9.798434526579736570e+00
-4.382838784984033516e-03,-5.826197304106067124e-04,-9.795854519412554140e+00
-1.504491240107985956e-03,-3.785857523401159683e-05,-9.800036369086360111e+00
-2.784247395281601398e-03,5.357886934737265093e-03,-9.800237592134461551e+00
9.685387046942276157e-06,1.907385882790859450e-03,-9.809001620103591890e+00
-3.330757327281917875e-03,-5.930775089763425968e-03,-9.800994720754045986e+00
3.199796798339211556e-03,-3.457280680877779580e-03,-9.792203692414901184e+00
1.823223829443394511e-03,7.214168545704835293e-05,-9.800244158107734194e+00
1.847165096997853547e-03,4.200109896268473873e-04,-9.796812571374127643e+00
2.203336287612847350e-03,6.254885730661487002e-03,-9.799971848877866876e+00
6.546302136574639989e-03,-5.951610467758722788e-03,-9.788834573484168189e+00
-7.376978807767138081e-03,8.514625704577305845e-03,-9.792635786259749509e+00
-2.277224011283118972e-03,-1.456839863024970527e-04,-9.794043810357134561e+00
-2.739996320114215702e-03,5.219871798762209213e-03,-9.788460984734285830e+00
-7.622597039746854515e-04,-5.481714067999831838e-03,-9.794317385710790802e+00
1.882949126107339713e-03,-1.321060566124249852e-02,-9.792053617505249719e+00
3.741301607828131405e-03,4.357164129484164886e-03,-9.792949799428928515e+00
1.713662335311693253e-03,5.198489084548443481e-03,-9.798876985385227556e+00
3.636800824661119702e-03,-9.677668592665080588e-03,-9.793373071350186976e+00
3.572073360428732261e-03,-1.000224465367331771e-03,-9.801857817195642752e+00
6.218330995389955568e-03,7.637588617812270803e-03,-9.791211699681349856e+00
-6.821497639834143284e-03,-3.024434040812446194e-03,-9.792741691523520586e+00
-4.002622174804570075e-03,-3.673201208231307701e-03,-9.799317824086827500e+00
9.658818762919841455e-03,-8.678985611152644289e-03,-9.793968063130114032e+00
6.681570801904958626e-03,4.291602624629260905e-03,-9.800037066664753382e+00
6.532194149594309010e-03,4.076959144559167704e-04,-9.796686436976346002e+00
-7.064208532431279827e-04,6.328260664625261558e-03,-9.796632540455103566e+00
-1.720000015565273203e-03,-2.661562912113190661e-03,-9.797586854608891116e+00
-5.668875496741691052e-04,-9.253813391787475565e-04,-9.794551915484065674e+00
4.024726469516783263e-03,8.127523588441219792e-04,-9.799741969598596114e+00
3.683189314177180707e-03,1.595471631876420584e-05,-9.790976341979089170e+00
6.549484231857973307e-03,-1.405193827734926935e-03,-9.797223185078234309e+00
4.615702567393455309e-03,-5.209776544076270962e-04,-9.794523043679118857e+00
-5.216627761368658814e-03,-6.602713071919165573e-03,-9.798299900181202560e+00
-2.551128424496092520e-03,-8.020085066126394005e-03,-9.790719767803226503e+00
-1.120257142824043414e-02,1.046438168205087024e-03,-9.791357484379016540e+00
1.572253878852051699e-03,-4.155026168384630923e-03,-9.790446365998400680e+00
4.866807822620322459e-03,-5.320071673890950856e-03,-9.800791200116012902e+00
1.018431121589158557e-02,1.220405991684704768e-03,-9.798249103204190291e+00
3.160475314632886848e-03,-2.931597648429685142e-03,-9.795097043229016975e+00
3.254384612368427156e-03,6.043336620927155026e-03,-9.790879418834402159e+00
4.629990134368166393e-03,5.944559996987702766e-03,-9.804741338255105632e+00
-7.695618334377959772e-03,4.252990799213243224e-03,-9.798239279480631225e+00
-2.331024078777279088e-03,5.322241170229151212e-03,-9.802922964688121965e+00
-2.768662674931358925e-03,6.839023886468145914e-03,-9.795587005161172200e+00
-4.348912127414000274e-03,-1.510889052410056615e-03,-9.790377294507988992e+00
9.482613613016076031e-04,-6.566696744362677737e-03,-9.795726116050865073e+00
-6.565203208340749524e-03,9.869925672497488131e-03,-9.798252355954103265e+00
4.044398699303108739e-03,-7.661589765688334684e-04,-9.793747953318312938e+00
2.197480013557354377e-03,-6.033197327919301647e-03,-9.802880949250001308e+00
-3.611095655823093678e-03,-6.908407257974367652e-03,-9.799381840636566920e+00
2.705344880989237876e-03,-5.055783176596436584e-03,-9.787138362623641896e+00
3.666277644678226505e-03,1.160842942590256319e-03,-9.792675265106478122e+00
3.362703008751059645e-03,1.205665624117947116e-02,-9.790013354002702783e+00
9.674421787402211897e-04,-2.872354510687907033e-03,-9.788498914175187693e+00
4.776283747832008215e-03,1.476306861556568205e-03,-9.795752021741773063e+00
-4.041404478388922620e-04,-7.269838567759982946e-05,-9.788306638387394898e+00
-1.937684398342677484e-03,4.851152686830995792e-03,-9.797574145303531878e+00
-3.891839559503644606e-03,5.468202025111666351e-03,-9.801459343627048071e+00
-3.254247423499896652e-03,7.676202692293432458e-04,-9.800658579487235400e+00
3.954368732799490999e-03,-4.372955844151595398e-03,-9.794776617445002387e+00
2.572343291870810879e-03,-2.616113430116691167e-03,-9.801288849019845983e+00
1.601641509204992193e-03,4.681192403555894249e-03,-9.799188769036550894e+00
-7.341776853920295963e-03,-4.665218672943312675e-03,-9.792977147015514916e+00
2.319790088961300959e-03,-1.846067668528410428e-03,-9.791284815074522641e+00
-5.203661030137785547e-03,1.075328605089846679e-02,-9.798577847170042432e+00
-2.314363841969848280e-03,-9.043631631872198554e-04,-9.791047283912535093e+00
2.922316897856592349e-03,2.885970405685781698e-03,-9.801799237790673303e+00
4.295125568660920767e-03,-8.438073899710164805e-03,-9.797095787189482152e+00
3.593343555856226210e-03,-6.965846808569019395e-03,-9.786584656331124066e+00
6.692657363381820587e-03,-4.514428100309044074e-03,-9.793178216294595728e+00
-1.321946965804436105e-04,-3.998044178231207647e-03,-9.790936510849407526e+00
-6.373980398654487470e-03,-5.266308857923970507e-04,-9.791124709386169300e+00
-1.925024435502477186e-03,-1.192472439760471938e-03,-9.796847868830154127e+00
-4.504960057231807528e-03,-5.994158367360157350e-03,-9.795676565772705402e+00
9.075725193518600215e-03,3.847892974686585674e-03,-9.791352368150558760e+00
1.419273144831268265e-03,-4.406915956988079891e-04,-9.796979245439869644e+00
1.948790648978989196e-03,5.475312436072922971e-05,-9.793923310737381982e+00
-1.305373536570279391e-03,5.012775144421091969e-03,-9.801938339316849991e+00
-3.911555149999876822e-03,1.854169856669756747e-03,-9.793416574508592376e+00
-9.635617827446141736e-04,-1.674374516759013685e-04,-9.799816160429546841e+00
8.601706741919701651e-03,-4.030725332787905499e-03,-9.799356287156735235e+00
-8.484599922687770593e-03,-2.062817018457586797e-03,-9.793204789198131976e+00
1.598122760118197766e-03,6.148886623033688117e-03,-9.785287916058448943e+00
-6.308455882522226443e-03,2.078216239552249482e-03,-9.797994211065596204e+00
3.524207318139210843e-03,8.707220655400097148e-04,-9.787122936872160395e+00
-6.474357880229947119e-03,-3.161177912231749165e-03,-9.803239521740135132e+00
7.734299771419404952e-03,-1.081923795240901168e-02,-9.786370365130107274e+00
-1.086244596117328862e-02,7.818245477670825345e-04,-9.789828769538434727e+00
6.626376410870626378e-03,7.481772295778125331e-03,-9.782323772131000794e+00
-4.798035509999599817e-03,1.100177946527796519e-02,-9.791684618477960456e+00
-5.778679129551891891e-03,-1.129124788500085333e-03,-9.787852408349605682e+00
-3.197043405121276043e-03,-3.163840773167505942e-03,-9.795650525093876126e+00
1.200385970798838664e-03,1.716366988053538928e-03,-9.794705768400646662e+00
-1.686192543840345139e-03,1.880047364685886449e-03,-9.797961348371014623e+00
2.113087225264820290e-03,6.021106190586590808e-03,-9.796935443431939561e+00
6.908854037409279530e-03,-2.626124277520144965e-03,-9.798920834735211471e+00
9.030322350510350260e-03,-1.773907145151511601e-03,-9.797730104821864572e+00
7.937695592494122378e-04,1.786447430688374105e-03,-9.791998605251270860e+00
-1.774401281268880252e-03,-6.133079263827540158e-03,-9.795027508703618935e+00
-1.870934307610288899e-03,-3.826830720596955944e-04,-9.791537897327263096e+00
-3.012119207670100902e-03,-5.784488686872632512e-03,-9.794348841129117744e+00
-8.442596238716199714e-03,5.908883405832244737e-03,-9.798572485292272205e+00
5.561720811469527889e-03,1.544497939024876230e-03,-9.799631286802219066e+00
2.350684310014073460e-03,5.967553881272405318e-03,-9.806806391391992506e+00
1.115831219925856287e-02,4.473946172854554801e-03,-9.802115297889793410e+00
5.338191292060870223e-03,4.873186311149915566e-03,-9.793279356597626162e+00
-5.930664438829327464e-04,3.047845183107654021e-03,-9.801802847523928719e+00
3.496829152774800099e-03,4.881598609907474365e-03,-9.795384274309217432e+00
-7.241987463939494538e-03,-2.525446040592461451e-03,-9.796016711394942789e+00
8.815601947519502261e-04,-7.966118790111484382e-03,-9.791469759696489916e+00
6.514467810428239622e-03,2.358998669374549016e-03,-9.799758066524416833e+00
-5.111904018139521583e-03,-1.134127983257265070e-03,-9.791069993707242958e+00
-4.601217813124459585e-03,-2.405010635124860650e-03,-9.802699473526205409e+00
-2.401045165319421002e-03,-1.395562559518933069e-03,-9.801750263066230318e+00
-2.188276963463222681e-03,-3.078729845485018036e-03,-9.793902991711012973e+00
-1.934345142753054678e-03,4.790937167431613165e-03,-9.793777642890777457e+00
-4.695390337975623857e-03,1.959077281778159440e-03,-9.796441864070573047e+00
-5.422755842168064909e-03,-1.151440771470095548e-02,-9.794128474206694079e+00
9.001774410639191634e-03,-5.830868346152386604e-03,-9.795992789595199923e+00
4.929011989154815851e-03,-4.546380346747667077e-03,-9.798149456948877400e+00
-2.061904532730720035e-03,-2.674275560889951935e-03,-9.798613198799554169e+00
-2.246841013748892505e-03,-1.547353939394827127e-03,-9.801289729103665138e+00
4.555834258893945270e-03,-4.063110602397485395e-04,-9.795622827070484817e+00
1.033741385990974340e-03,-9.776722996709275720e-03,-9.793215399873188787e+00
-1.361946717896171839e-02,5.877195894934529249e-03,-9.796359149461068228e+00
-4.215996759115695283e-03,8.253468431356314298e-04,-9.801476289256680019e+00
5.362591136850092775e-03,-1.990410106376421309e-03,-9.805297578636922751e+00
-5.524734050875524174e-03,1.731988074027200229e-03,-9.794943954205157510e+00
-5.309710836409855042e-03,-2.274623682538122731e-03,-9.793190805900428231e+00
3.759487208178472883e-03,3.233130047783588576e-03,-9.799136197479354493e+00
3.237905977523744365e-03,-1.202103660276107816e-03,-9.788234421428533949e+00
5.222834249645842176e-03,-5.952392120101829449e-03,-9.796830707607417921e+00
4.981393839368659406e-03,1.999333856659215192e-03,-9.799995153430417716e+00
2.669501632253755332e-03,-5.987478988286801642e-04,-9.790434529842213962e+00
-7.385465185264591774e-03,-2.418357788014328155e-03,-9.801987119431629480e+00
-7.485678766959717907e-03,-2.424541528089286385e-03,-9.800617124635749633e+00
-8.914594520540095046e-03,6.583069725833569016e-03,-9.791070102067470415e+00
-3.976854671196174314e-03,-3.704427536462104494e-03,-9.801843906918300320e+00
1.410047653158110273e-03,4.451048934061796643e-03,-9.794447381032718170e+00
-3.576943911339669924e-03,-1.854093821428553016e-03,-9.797591704090871545e+00
-3.138875132722709731e-03,7.428021328484250146e-03,-9.795562463942367515e+00
-3.071051230877179235e-04,6.141932463301534410e-03,-9.798267331618619735e+00
-7.301617918765136717e-03,1.670858381288745044e-03,-9.793186884411396065e+00
-1.910866276890083124e-03,-5.719037672762504725e-04,-9.798258355356614047e+00
7.907336655405976938e-03,-1.735430338546846418e-03,-9.789783863241744655e+00
-4.822843297356137378e-03,-2.483785753667482662e-03,-9.793895393333748700e+00
1.108560811388715301e-03,4.011639576539955537e-03,-9.790447017376862959e+00
2.915322828557939845e-03,7.863346603448336880e-04,-9.790391333621599301e+00
3.877420149701011048e-03,5.964398956361185652e-03,-9.798321668189377220e+00
-1.317483344818479911e-03,-1.025662345682439545e-02,-9.793840049717804419e+00
4.991615946520229627e-04,-3.354854960540411095e-03,-9.796041434858386410e+00
-4.350769564527203620e-03,-9.168136847905835511e-04,-9.807164460017327556e+00
-4.745712076185725284e-03,-8.878122074509541342e-03,-9.801142238888383318e+00
1.102310260388034320e-02,5.827800577928909757e-03,-9.790518238532646578e+00
8.878560341233369870e-04,3.375334148341817796e-03,-9.792074414703622054e+00
9.821686062446446930e-03,-3.967602042440242054e-03,-9.798460009297722095e+00
-1.213862254609209814e-03,3.356158928448684832e-03,-9.795611120301272123e+00
-1.021675132162233775e-02,-1.516696515551363422e-02,-9.796624058345141606e+00
-2.871298473080132353e-03,1.306106163468223353e-03,-9.797338974744004503e+00
6.417812451571296151e-03,2.616948142008341301e-03,-9.788405498625309065e+00
-9.113722525206896898e-05,6.198105207500734237e-03,-9.792935983349334350e+00
1.369754511595727177e-02,5.637235128159653018e-03,-9.798867885267934952e+00
4.988995133099322771e-03,-5.533773754605885884e-04,-9.796793862755135862e+00
-1.127188904703631429e-02,6.642671698005983907e-03,-9.805537313745103845e+00
6.677162307576395284e-03,7.088628894126537162e-03,-9.791738527510164047e+00
-2.578443272384088950e-03,-2.593095380007640928e-03,-9.799876011572980161e+00
1.888070096998937250e-03,-8.561168975576394051e-04,-9.801577190754624525e+00
-3.093196311773316678e-03,6.663713780550088034e-03,-9.788741596071092843e+00
-1.050027764448241072e-02,9.330599821631409361e-05,-9.800432222681635608e+00
1.839135099456904072e-03,5.323410864165557463e-03,-9.794232133600560886e+00
-6.086972913269417078e-03,-4.949034551598108060e-03,-9.786619688442550924e+00
3.104308626839276299e-03,1.912740563012133455e-03,-9.801632254375688191e+00
-4.854175228007667070e-03,2.523971236965211196e-03,-9.793421230274358180e+00
2.896860724129987109e-04,2.974018382439439206e-03,-9.797347705171620902e+00
2.561427596358670580e-03,7.227465727478444429e-03,-9.790650242337381570e+00
-9.854317704112154457e-04,4.596205469494532569e-03,-9.797263684750394219e+00
-6.276362609946847110e-03,3.784356861809824030e-03,-9.801029358835439353e+00
4.931861004175675488e-03,-2.124053628200766024e-03,-9.801871343884217325e+00
-5.734117078933277829e-03,4.121194724696027913e-03,-9.795809229693293929e+00
-4.681494343900037373e-03,5.938153645186990473e-03,-9.791746596438123618e+00
2.048152642116519376e-03,3.537819121165445072e-03,-9.791552552988868285e+00
-4.804513207326270574e-03,9.265981846452404219e-03,-9.797856592312959023e+00
-3.870663354019955593e-03,-7.231122400612363145e-03,-9.793460064697976364e+00
-6.200368304070098466e-03,5.118962505255166169e-03,-9.794318108727987138e+00
-1.606987348233458388e-03,-8.341241085314620276e-04,-9.788529190926706036e+00
-4.339793811285682940e-04,2.987027601473294085e-03,-9.788123061454239604e+00
5.059737212968618350e-03,3.333740393728364115e-03,-9.789701354588761006e+00
3.493723071899781929e-03,4.360667567880118509e-04,-9.789458769296157215e+00
6.442649883217260558e-03,4.494851086131204827e-03,-9.792340796254167756e+00
5.473372752860170259e-04,7.663041821293284893e-03,-9.803241596650009271e+00
-7.658085811011613141e-04,-3.967678035096676957e-03,-9.794652982659483698e+00
1.535839411274037610e-04,9.421818049930268460e-03,-9.798617933045111528e+00
2.977030312125707526e-03,4.357471483401877468e-03,-9.794910018473302671e+00
-7.053781731519505847e-03,9.597799922416399947e-04,-9.792348680969464425e+00
-7.136161328946850901e-04,-1.674410575664226882e-03,-9.790155079531556837e+00
-4.651881312089755152e-03,-8.826082468911127660e-03,-9.791296055524142616e+00
-3.360201531141939618e-03,5.743545813700289514e-03,-9.799736111904330471e+00
2.190486288708588022e-03,-3.282226518318736089e-03,-9.789903573467775288e+00
2.912974393857044233e-03,7.957720671939324218e-04,-9.795597651905879388e+00
-3.917436939564322880e-03,3.300630576723915296e-03,-9.801298052163449626e+00
-7.655825044947651287e-03,-1.231835485535874011e-03,-9.794008285426494709e+00
1.331163711148781147e-03,-5.194008220116355656e-03,-9.795249216960479899e+00
-1.610641729655973992e-03,-5.697008204917780594e-03,-9.785916233977809853e+00
4.505597493427803031e-03,7.977616201094960002e-03,-9.796529678344354508e+00
-1.072944400929984896e-03,1.398692539774256316e-03,-9.790150590566495836e+00
-7.159351891154154372e-03,3.054964348528481973e-03,-9.785657446387613589e+00
-1.994442682892839849e-03,9.235946524094134497e-03,-9.791833992307246604e+00
8.352495892099924893e-03,4.075988188653068001e-03,-9.804412852416380275e+00
3.684546933578853895e-03,-3.001262572084501500e-03,-9.796945443932054687e+00
-9.085633845093542965e-03,-1.304369279110261263e-03,-9.790758322963490912e+00
7.613065878573694288e-03,1.777666906312146871e-03,-9.791074974947726162e+00
8.631817215312980948e-03,-5.102837223437525251e-03,-9.789126752839242940e+00
-5.398478766448857463e-03,-9.366085996973646177e-06,-9.795669213200831393e+00
2.635347100886074358e-03,3.108323719644094825e-03,-9.795452372086774773e+00
7.858398669076040177e-03,-7.843877001913654098e-03,-9.789659413457712844e+00
3.582524004070592512e-03,-4.607209527066048922e-03,-9.796100359915818956e+00
-6.259828008080652734e-03,-5.371288586993653441e-03,-9.791082419531612402e+00
-6.366168623386739972e-03,6.716464855094935946e-03,-9.792863487361062269e+00
7.165501718415879856e-04,3.116141597373668116e-03,-9.785596640872608276e+00
-2.857591881804079446e-03,2.288300125488363247e-03,-9.790523400827677136e+00
1.227468531763280073e-02,3.034665468997575343e-03,-9.791932241483408461e+00
1.523905386639713829e-03,1.224436692249519397e-03,-9.799433248750036185e+00
-2.554535889690518960e-05,2.895124201023387394e-03,-9.800742656270870157e+00
3.564532595839252967e-03,-1.881338067612848457e-03,-9.789077156332048446e+00
4.056401197191367679e-03,-3.681009232053914122e-03,-9.790159833593198968e+00
2.327032957660275445e-03,4.119011383037783462e-03,-9.790981135512199174e+00
6.159628558885564889e-03,-1.126217549406588253e-03,-9.795116701616640498e+00
-1.414637413792035848e-03,7.422794528094546311e-03,-9.801498298745491056e+00
1.071802965913566750e-03,4.071994120334702059e-03,-9.798382381188249113e+00
-3.968448138336109349e-03,1.642521668630609732e-03,-9.789080599647499881e+00
5.715764253206445525e-04,3.095081657263056875e-03,-9.798267394986361012e+00
9.472927850187877474e-03,4.465567347165072011e-03,-9.790681394677868354e+00
-8.118007222914004964e-03,-1.033458757576833156e-02,-9.798683851687586710e+00
-2.606307870923420603e-03,-2.387595106315363366e-03,-9.796584980456437108e+00
5.274215703620580703e-03,4.937360181599773426e-03,-9.798217094068258248e+00
5.473117099513496401e-04,5.080446183016574082e-04,-9.798704989986143588e+00
-1.319052010034320842e-03,5.010887993760149367e-04,-9.791278439370920239e+00
7.319469539892331251e-04,4.366011095997788215e-03,-9.787725553022490033e+00
4.197364456766120022e-03,-3.766037953811280682e-03,-9.795271776156441845e+00
-1.260090705345627126e-03,-3.782065032953905916e-03,-9.798493944838785552e+00
-2.453341299219486803e-03,-3.430099823533608750e-03,-9.801091187337355848e+00
-6.127766333911920452e-03,1.044579032728618767e-02,-9.800626172188840357e+00
-6.961786063355348284e-04,1.086752765078270776e-03,-9.793457608746400922e+00
-1.876871888316584795e-03,2.131018414532570744e-03,-9.792399384717118238e+00
8.497691779445560104e-03,-2.058210681374442533e-03,-9.794848520147663606e+00
-1.610838868260171730e-03,-3.932101979350819537e-03,-9.794556386065487175e+00
-4.306316384694277438e-03,-1.399808986707017306e-03,-9.789044696810282886e+00
-2.652863736048504794e-03,5.078858421702061622e-03,-9.791317050381358911e+00
7.073879105282468438e-04,-4.241743158602795903e-03,-9.798087333571459112e+00
7.023880511087189638e-03,4.088307711895322431e-03,-9.791237155407275239e+00
6.968538232395759570e-03,3.254974450778464357e-03,-9.797410400843782341e+00
2.760978754786344840e-03,-1.320977103388435705e-03,-9.792731727234849970e+00
8.358398729632527963e-04,3.183229298186741017e-04,-9.800702070810787703e+00
-6.345371436149350834e-03,-2.770471493117440155e-03,-9.791208725934808399e+00
-3.986098651072675358e-03,2.558594054225836467e-03,-9.787176022885772042e+00
1.841701059594817204e-03,3.825492893030258898e-03,-9.788766827127833636e+00
-2.170702025730369272e-03,-1.666316483686373874e-03,-9.793770910035810573e+00
4.594241649418078118e-03,3.029757436308522841e-03,-9.798118242440130743e+00
-7.934160430212297208e-03,-8.740216649548482363e-04,-9.798109491312024133e+00
7.040618513316975954e-03,-4.011457637888402213e-03,-9.792655490793972461e+00
-3.428977906857003273e-03,4.530806764386323404e-03,-9.798204320477578833e+00
-5.748071985153762166e-04,-3.479234757204282234e-03,-9.796213406225508180e+00
4.474479255101677586e-03,-1.745782978067885773e-03,-9.794931165954912089e+00
4.594307478402534332e-03,-4.430907223902733581e-03,-9.797095027466593109e+00
9.014443233642033260e-03,-4.015632527697530520e-03,-9.797925385064006676e+00
-8.826693126994491351e-03,7.808015776529039385e-04,-9.796394154207472837e+00
2.039183827438698256e-03,1.796963959928498614e-03,-9.796048665385114873e+00
2.011178459190612368e-03,-1.071846943920208486e-03,-9.788852503412707406e+00
3.423991349664466579e-03,-1.463130366839510577e-03,-9.796991950217810441e+00
-1.309546782367627471e-03,4.128921146816316723e-03,-9.797793230116143448e+00
-1.691125402030469165e-04,4.248127686773596630e-04,-9.792597514492136668e+00
-2.813475187854676436e-03,-3.236389610600934070e-03,-9.802769810787474114e+00
4.457297810533875949e-03,3.026856627657725785e-03,-9.801614664812396072e+00
-2.961340501035352769e-03,-4.713155553982844095e-03,-9.784647956414548986e+00
-7.826539125134921934e-03,7.883531712413573492e-03,-9.792482046952793340e+00
-4.601889651859610193e-03,4.676713052552424095e-03,-9.797201544748615376e+00
6.535885942239038487e-03,5.377887102208864234e-03,-9.800808317245325085e+00
-5.041030359959838142e-03,2.678756463982615802e-03,-9.799046023216451573e+00
-5.062427226985263470e-03,4.864484840622994473e-03,-9.789427015489373218e+00
4.199778755617702454e-03,6.847403463925461368e-04,-9.796798382563125074e+00
6.110326445012362155e-03,3.136193743409521235e-03,-9.799899359870648752e+00
-4.334352180164989347e-03,-8.618041994309870012e-04,-9.787613508263692808e+00
-5.398707193358749136e-03,-2.006879100103405641e-03,-9.798105018526353405e+00
-1.933950924933436084e-03,-3.933920771443933512e-03,-9.792705877029876049e+00
6.850196005306047504e-03,2.863447058701632398e-03,-9.783465762277227640e+00
5.002288518100455467e-03,-4.957656188830997235e-03,-9.792564992501416654e+00
3.602678071131724426e-03,-8.728501417310087149e-03,-9.787048300599190398e+00
7.220186923415508953e-04,3.366734060600715551e-03,-9.793510632558556139e+00
5.285018900165709167e-03,1.774839249262030565e-03,-9.792273430436738479e+00
-1.932632972851702508e-03,-1.319458044815116594e-03,-9.789297553161450338e+00
3.221556840171289730e-03,7.500737234421071473e-03,-9.789063114950042888e+00
-3.634013537443729017e-03,1.974705632712428667e-03,-9.795843704764765292e+00
3.936753912197733449e-03,7.721733417625159870e-03,-9.797471964402975075e+00
-1.198567742966782706e-03,-7.506927409364581340e-03,-9.786435198437308358e+00
-6.587195972835040506e-03,-2.405933348755717629e-04,-9.797665586464017196e+00
6.743540236712593445e-04,-9.806039859309428203e-03,-9.790009041650732158e+00
7.609818960341695887e-03,-4.169841549882775250e-03,-9.795482969130707929e+00
2.639556189262472815e-03,4.421842091454414835e-03,-9.789954009100364729e+00
1.740159150716233676e-04,-4.010160434251949096e-03,-9.785219295353266844e+00
8.712234104546695643e-04,-8.655930294401717462e-03,-9.798723657179309043e+00
6.701324592003929208e-03,1.362699101607414741e-03,-9.800319357799207154e+00
6.748859722089574505e-05,5.860922353670917385e-03,-9.798232224390270417e+00
3.367670909550479763e-03,1.262903663525149437e-03,-9.795714268449692952e+00
-8.140751424112245213e-03,-1.870962386009500291e-03,-9.800034495845160620e+00
4.385447494432668201e-03,5.586259620482550425e-03,-9.788039201000065859e+00
7.399901240836418911e-03,6.582047178266826589e-04,-9.789051901750086770e+00
-2.157509819568075027e-03,8.887281570180694673e-03,-9.796303029206653079e+00
-1.564994746918737471e-03,4.931153482164876353e-03,-9.795802441714725362e+00
-4.798487466234070166e-03,-6.617448463357987996e-03,-9.797697765913508050e+00
-8.902098958577662124e-04,-5.299485704475265062e-03,-9.789586918510664759e+00
6.831763723426280063e-03,3.990885722861294699e-03,-9.798093209030975359e+00
-1.453427121568238740e-03,-5.782741918374590881e-03,-9.798611487911209394e+00
-1.226169737276829041e-02,-9.345915934514630388e-03,-9.793851078706646618e+00
-6.767051559221580991e-03,2.707187648108223723e-05,-9.792934053010467821e+00
-5.695998596462202405e-03,-1.919337833027251797e-04,-9.791455886665616504e+00
7.907780640830981049e-04,1.964098697543704714e-03,-9.788192350830456689e+00
2.881039259328209683e-03,3.357224342784674576e-03,-9.799946143991498104e+00
-6.469500315065836692e-03,6.904040037990241772e-04,-9.788727151635889356e+00
-5.025176368299891574e-03,-1.595899314561839482e-03,-9.796132882220272009e+00
-5.426825469482451751e-03,1.228613323954500132e-02,-9.801545046925548732e+00
2.255912622541020578e-03,5.000405617043553273e-04,-9.788558024532823865e+00
3.761902086720493761e-03,2.668204871149520117e-03,-9.793529146456563694e+00
5.074090528845062210e-03,7.005986604415512069e-03,-9.793869104490651623e+00
-1.110675967704311852e-02,2.855958781143328427e-03,-9.799638598767009157e+00
5.840305795215777404e-03,1.611496146641747812e-03,-9.790728530975195909e+00
-2.093812381398749324e-05,8.661698581140306677e-03,-9.802455570763694226e+00
-3.155237781963236322e-03,-8.543644345838822401e-03,-9.798920838327099148e+00
-2.395552459811256356e-03,-4.592529707425385991e-04,-9.803666270478593958e+00
-1.135668144397180678e-03,-5.646526080321052563e-03,-9.806583933013836685e+00
5.420886490014411620e-03,-7.871270638260053840e-03,-9.796940866921923785e+00
1.024033118273683964e-03,4.004282629485287639e-04,-9.790647046705322154e+00
-7.831910919132531348e-05,6.586320996953202826e-03,-9.797771340337380508e+00
-1.398899273749733491e-03,-1.995673410803033409e-03,-9.795907032567191308e+00
-1.065976788102916684e-02,-6.893263212977659982e-03,-9.785830083576358973e+00
5.758109223447495720e-03,3.277161751083827409e-04,-9.795581661770903281e+00
4.161776488618304515e-03,-6.791211036422066874e-03,-9.791668002857916164e+00
1.497229990647793059e-03,-1.140723025743754738e-03,-9.794615444339147103e+00
-3.338336673922770795e-03,-6.862124091942678125e-03,-9.795262513187864784e+00
-1.409882445921673173e-03,-1.057760048024703175e-03,-9.794755503908559646e+00
-3.114574062113458202e-03,-2.840154496092492289e-03,-9.800051255700518382e+00
5.410526236853287554e-03,1.775605645761305302e-03,-9.805311535117040123e+00
-9.833828721630228850e-04,-1.201020375508108457e-04,-9.793114547242337764e+00
7.966628660637421408e-03,-5.981303861879476089e-03,-9.792803479508949138e+00
-5.259958817349521740e-03,-1.783478684369876194e-02,-9.801660412127166211e+00
8.181419442071057382e-03,-4.526353459022284913e-03,-9.792103084328747542e+00
1.503075987358390344e-03,-2.293594768731306837e-03,-9.793583385305463906e+00
-4.830424233627001254e-03,-2.981743135265196420e-03,-9.791632255729842527e+00
1.269392676756498153e-02,8.820884725567048473e-03,-9.793068274321967692e+00
-2.636295662555976967e-03,4.832704318634753297e-03,-9.795624887069141806e+00
5.927490512763890045e-03,-1.948669378332502575e-03,-9.787721828138989721e+00
-6.385209120184702665e-03,-7.210827315624461845e-03,-9.787886582251164924e+00
-5.690074733002530027e-03,-4.375150075915581072e-04,-9.806294299795897729e+00
-3.911906749119211909e-04,-1.865355170892347113e-03,-9.784087328991919463e+00
-4.281245289932072637e-03,-2.534083987089659918e-03,-9.792383639892237923e+00
-2.443992381884480068e-03,-1.240666112265443634e-02,-9.800787256092013067e+00
-1.150319523215498525e-02,2.804146078041972173e-03,-9.791462189928255455e+00
-4.019690249296420555e-03,5.323464398234710807e-03,-9.783480071748861917e+00
3.476812155524070750e-03,-6.407372258977989815e-03,-9.804175760981017618e+00
4.942874603028016289e-03,3.802461996979577923e-03,-9.795059786734181984e+00
3.622417263468482879e-03,-2.317919622386624759e-03,-9.795552998700289393e+00
-5.929754851607266231e-03,-3.534298240481253787e-03,-9.797812218356503067e+00
2.942374152426255850e-03,-9.104986683177449316e-03,-9.797477303975995255e+00
-9.439271469147119537e-03,-4.351052372496499142e-03,-9.793648162837934379e+00
-2.328985414661659226e-04,-9.067356231757438267e-03,-9.796119431509330511e+00
-6.451294205509914203e-04,6.077875989223940553e-03,-9.806164972327406915e+00
-4.634632510016470537e-03,4.203922862611998018e-03,-9.790148667072463340e+00
-8.781627070679940382e-04,2.944991502121922268e-03,-9.798743588224477108e+00
7.310802145349615082e-03,2.774556875628422705e-03,-9.803802584638042106e+00
-5.855241317164816724e-03,-2.460560493912564151e-04,-9.795266765713472878e+00
2.122547696324581564e-03,-7.716036642812729163e-03,-9.783419329177847956e+00
-3.019268239523508965e-03,-5.625967572109544582e-03,-9.791967330801313096e+00
-3.370638938449025540e-03,-4.702519472009815296e-04,-9.803354997621955391e+00
-3.827855400015033483e-03,-2.207183115408505817e-03,-9.797559473133174990e+00
-4.801323578368396280e-03,4.425609833844990938e-03,-9.794139135600635981e+00
2.085111202669021491e-03,-1.272852469546727552e-03,-9.804019402902701685e+00
-2.441551973621829347e-04,-5.979118845340459371e-03,-9.800834372802823324e+00
2.609122720229385857e-03,1.583822864926845994e-03,-9.793719778890782379e+00
-2.864404808672831905e-03,-7.873391218877010683e-03,-9.797456846570259614e+00
3.723212821336443568e-04,-3.791130568500870705e-03,-9.794961829812297793e+00
-1.739850706013929861e-03,-3.385754841319394835e-04,-9.790587466869304478e+00
3.462275056918689281e-03,-1.876399289914992352e-03,-9.804284767975916637e+00
-8.161050984329407468e-03,5.484744490096637266e-04,-9.789930899039044121e+00
1.200853267647050346e-03,-9.049831830771876140e-03,-9.800783211177671816e+00
-1.621397117660554376e-03,1.632655132054508604e-03,-9.786488124574093561e+00
-4.197079633745776604e-03,-4.605652282065829037e-03,-9.797926188608265363e+00
9.544519679197858118e-04,1.389331559019123252e-03,-9.790675590662369032e+00
-6.866873928912691676e-04,9.721021711295755414e-04,-9.793935253683310194e+00
1.741801543663306284e-03,1.745707476299410707e-03,-9.794802665035652112e+00
-9.775580245585611602e-03,2.515923645105741166e-03,-9.798551237369977684e+00
-2.856173884951456344e-03,2.021216339527896408e-03,-9.793407962684185009e+00
-3.194419267662679013e-04,1.929728135872513239e-03,-9.793063431463185253e+00
3.179108567128662542e-03,-2.513869092322140774e-04,-9.791737298896986630e+00
2.726382342703058057e-04,-1.025972403866653873e-03,-9.783094508231368280e+00
-4.982961052919578603e-03,5.569253222222744250e-03,-9.797937244070190843e+00
-6.250637418411702281e-04,-2.453609732557689681e-03,-9.797762390642029473e+00
-2.178239570788959283e-03,3.323187319942859982e-03,-9.792995385499310146e+00
4.617243001864510324e-03,-2.261748274785389812e-03,-9.796831157709323890e+00
5.302256482425837976e-03,-1.910524291069023409e-04,-9.793523173527786341e+00
-1.548825461242799365e-03,-2.522314953945554604e-04,-9.794072707829084123e+00
-2.163085525958642879e-03,8.740926768039723391e-03,-9.797017840924116427e+00
-6.014926628566354648e-03,2.617243598949215745e-03,-9.795007795278863227e+00
-4.240349631590208113e-03,4.956786999486153915e-03,-9.799036486891161246e+00
-2.363068084504225518e-03,1.005116576182735330e-03,-9.788543852206014861e+00
5.470306026021982612e-03,-1.465930551654935220e-04,-9.794538558086804514e+00
-8.504134389222033075e-03,-1.801676745843991271e-03,-9.793644957983588029e+00
-1.598558329509335105e-03,1.742399910505718725e-03,-9.802848817828598627e+00
4.022746428881437096e-03,-1.373216839779141211e-03,-9.795808996145709102e+00
3.204163086902832476e-03,3.884343254327693624e-03,-9.794962029666365311e+00
2.153453463147086706e-03,-1.992277568414696151e-03,-9.800280801966206212e+00
3.656112563239428178e-03,1.091466846425388770e-02,-9.789324269943394441e+00
4.000309921493032557e-03,-9.876870364360676446e-03,-9.790404364177211605e+00
-1.679252426486953177e-03,5.441766952009844879e-03,-9.796495568219702577e+00
5.711879513276677672e-03,7.841556251340217262e-03,-9.795907639833460578e+00
4.197794875775204444e-03,7.586716311078387301e-03,-9.783038856915185377e+00
-3.854694546222127514e-03,3.871704047067897007e-03,-9.805213584604647536e+00
1.109324247527114114e-03,-1.812340910476387817e-03,-9.793894022062449523e+00
1.280336402433831719e-02,-2.186366571794356138e-03,-9.785178444685463717e+00
-3.581110075608872224e-03,4.883955852695513744e-03,-9.801049950953041545e+00
1.075040253771800472e-02,-2.202326414982685478e-03,-9.796568829844643389e+00
6.062030923895470047e-03,8.706554575668748810e-03,-9.804881807743164757e+00
-6.300349822602769115e-03,6.616839616445390621e-03,-9.787187169656336394e+00
-3.028571946267260596e-03,-5.342742866933914130e-04,-9.805044107290482813e+00
4.117179869802730383e-04,1.600043542053512964e-03,-9.797837275558801906e+00
-6.277632861995544392e-03,4.077205851756947504e-03,-9.790036040203085932e+00
-4.464305793535559537e-04,6.146898648468969960e-03,-9.795358877166592038e+00
7.819393253833944318e-04,-1.638247085644922154e-03,-9.813019881951706935e+00
-3.348826168712933007e-04,2.114417060261607716e-03,-9.805182706480399801e+00
3.387304036854608610e-03,-1.428601768045101956e-03,-9.796030027406215979e+00
4.011870277300696140e-03,-1.513357911904617036e-03,-9.789080678561402848e+00
9.601544917705045687e-03,2.280542921682940025e-03,-9.801141656571321192e+00
1.923791826898123107e-03,4.069835395870516001e-03,-9.793039115716378973e+00
-6.455709824450692191e-03,-3.449145963187747257e-03,-9.792347704799725605e+00
6.751070550824482021e-03,-8.761129421376037891e-04,-9.794683805309423619e+00
-8.330132488098614119e-03,-1.298797057124703811e-03,-9.804220126299139082e+00
9.029947537779933406e-03,9.600234589769164302e-04,-9.790466519762869524e+00
-9.858157189811308369e-03,2.354860233793774123e-03,-9.791992628749856209e+00
2.380949741911595353e-03,3.306917687227622937e-04,-9.797612980199648547e+00
-2.909856056597004588e-03,-9.021078745274947741e-03,-9.798109613190121081e+00
-6.488844434240190369e-03,-9.600043422710573954e-03,-9.795017455788832095e+00
-4.174383747055259060e-03,2.999188213889858370e-03,-9.789361191419839514e+00
5.496132291422664573e-03,3.307344713644440239e-03,-9.789547654938058230e+00
8.734928886965342412e-04,-2.410584556576585071e-03,-9.791308153174556494e+00
1.038402861076619457e-02,9.343900622306815923e-03,-9.801466093059097773e+00
6.105415325277964607e-03,3.581138734101125144e-03,-9.791033692017402146e+00
5.946623652321575068e-03,2.079810477394057090e-03,-9.784330826798711911e+00
1.721882503204859608e-03,-2.298779938893735254e-03,-9.792483276336197306e+00
7.155707134420014048e-03,-4.522822209401821530e-03,-9.793842318737969066e+00
-6.608767767867568775e-03,3.035953840302446638e-03,-9.796224057048817713e+00
-3.939390292502626366e-03,7.783002308952705669e-04,-9.789539939952716097e+00
6.464516728292331186e-04,-1.365828286597370756e-03,-9.801668124479190780e+00
-2.233166151415063617e-03,-4.788948658843474038e-03,-9.793634655802845757e+00
-4.001878935659335980e-03,-2.281947304758667402e-03,-9.792916309759357674e+00
6.714176725412177027e-03,1.960220096824583872e-03,-9.793365089729066497e+00
5.632157209986797530e-03,4.880957670155818863e-03,-9.785778171551928750e+00
4.186507292537964241e-03,7.350467871258540425e-03,-9.801291853991651593e+00
-1.957890600131154731e-03,-2.441940989611858688e-03,-9.794783050110273948e+00
9.603621696112799684e-04,-4.620462127147962825e-03,-9.796857623695318651e+00
-6.248944105029683067e-03,-6.086909087124143559e-03,-9.798309668394924898e+00
6.933383249327739438e-03,-3.935849376101638493e-03,-9.794340898850615318e+00
-4.637636705872619572e-03,3.307324439323131634e-03,-9.799668695766820647e+00
3.306800401898053396e-03,3.784355930873096151e-03,-9.790110207984334068e+00
3.957520148866443548e-04,-2.808838962367428069e-03,-9.796848327294641834e+00
-2.480059586273529351e-04,1.058216043003258134e-03,-9.801825253018366269e+00
-5.259869141890553476e-03,2.237054133445018095e-03,-9.801192828692233405e+00
1.746886143637670129e-03,4.747578919024056203e-03,-9.800725698372813710e+00
-1.424144498606951317e-03,-1.315321225015518580e-04,-9.801188002651297637e+00
1.672609349830485792e-03,9.784314831728174733e-03,-9.787501885071876018e+00
4.084488006263210270e-03,1.401186752861184430e-03,-9.795433790967424059e+00
-3.359782213560924546e-03,-7.332561447493852764e-04,-9.793725733990394033e+00
2.143828107823301469e-03,-2.376279216890242983e-03,-9.789340522617600016e+00
-2.892327944508427833e-04,-2.424231193659598447e-04,-9.800546944868916199e+00
3.613046755629204139e-03,-1.411031635239244327e-03,-9.798450699585634638e+00
1.542624857930104381e-03,-3.278790422092401572e-03,-9.800628630956106591e+00
-5.577496093169075249e-03,-7.299184055115952828e-03,-9.794636690650962763e+00
1.511260468648444001e-03,-7.034590902430155630e-04,-9.787276004351303627e+00
7.160147376533682224e-03,-3.282446700694570570e-03,-9.799532344433966813e+00
-9.184551333294712575e-04,-2.364633959338441251e-03,-9.796233299002091499e+00
2.707855824853092411e-03,-1.929728461000409416e-03,-9.790458396951366993e+00
7.185409090044968250e-03,5.092742062684574907e-04,-9.794857500202235556e+00
5.339126475756306341e-03,1.746269466465884203e-04,-9.792922539188911202e+00
-2.516452056917990905e-03,9.560112311010931152e-04,-9.792604062190550351e+00
-4.453626659675509990e-03,1.290567283974631413e-02,-9.789066918257109506e+00
2.917977283032544000e-03,4.592121093588836557e-03,-9.797509721616449951e+00
-4.446815419586829486e-03,8.924159248429200039e-03,-9.793308659638636726e+00
-7.834307273067074584e-03,1.565407660334853851e-03,-9.791246329796011949e+00
4.230949914169748272e-04,-2.241147766093016635e-04,-9.798005250095281227e+00
3.525485757618176713e-04,-1.530583483130524376e-03,-9.796696435150186844e+00
2.227358717644770895e-03,-9.075566924683713468e-03,-9.787486293689855898e+00
-3.821361971505006765e-03,-9.024440507168713169e-03,-9.791156224965506638e+00
-3.795649519898070239e-03,1.712932003938762420e-03,-9.793798002792762247e+00
8.035969841134147642e-05,3.291681790608480887e-03,-9.797574267706675499e+00
1.176940092158891039e-02,2.595043120337650437e-03,-9.787851567537169117e+00
-6.096813646049740153e-03,-1.194072626847376539e-03,-9.796736043741450572e+00
8.349677881117541570e-03,-6.741796402227696666e-04,-9.786695705270869183e+00
-2.047612027251967479e-03,7.280739388567163356e-05,-9.784994820735168020e+00
-1.113311055346523012e-02,3.458067992962349821e-04,-9.795611908086273800e+00
-8.424037670071199586e-04,-5.528428954363140760e-03,-9.802163647918357370e+00
-2.757645687482445079e-03,-9.781527325068629930e-03,-9.795039231803992053e+00
1.817967597068244215e-03,-9.529057256562134884e-03,-9.791570014235327690e+00
1.231052418255950765e-03,-2.258497966834938000e-03,-9.795765661087461496e+00
-2.637557236680831627e-03,-5.606127842556718650e-03,-9.792850392224885070e+00
2.623608218591391445e-03,-3.720777554255916102e-03,-9.792724304034530647e+00
-1.053544836654612786e-03,1.194603628466955588e-04,-9.806266223534056081e+00
9.184510428418517572e-03,3.164970520814185638e-03,-9.795488233721302507e+00
-7.836553960002551203e-04,-8.945930691199045423e-03,-9.791645648883454456e+00
-5.579894760122117332e-03,-3.265927822037131140e-03,-9.797240778847832843e+00
4.301191086351728067e-03,3.618822612737064917e-03,-9.790011958061063169e+00
4.864428060539859977e-04,-2.958530196782587201e-03,-9.792787679099397735e+00
7.875152787711723820e-03,-5.742021067747487238e-03,-9.801219313230436825e+00
-6.221026883987455444e-03,1.838681527521275139e-03,-9.798166981109275753e+00
-1.068379402980254231e-02,7.064553281485780323e-03,-9.794882857794618758e+00
-6.676443829537428987e-03,9.112977577280377984e-04,-9.795730116898125672e+00
7.375697302048585431e-03,2.659979741452090946e-03,-9.794892787043989912e+00
-3.891142695691201907e-03,-2.092537674519019415e-03,-9.791408530005503152e+00
4.442801680217522628e-03,1.841109939140299443e-03,-9.789493475292379898e+00
-4.994300202005405587e-03,-4.755121890464166119e-03,-9.798508729292729313e+00
-6.016019773694704061e-04,6.895579974239399862e-03,-9.787293503820219343e+00
-6.724307297304416876e-03,-2.023267310788767585e-03,-9.800461931662036719e+00
4.014559669186418094e-03,-2.900617921109374404e-03,-9.791697314026517773e+00
3.360476134756584191e-03,-5.112874051624960274e-03,-9.788575224044832268e+00
4.160796858017164722e-03,-2.199627311616027259e-03,-9.803555297209747721e+00
-8.661443563357171249e-03,-4.721037136069485517e-03,-9.797185119865629233e+00
-1.697566623795380763e-03,-2.495041337438318099e-03,-9.794670420133970268e+00
-2.153774824001989264e-03,1.515164154352414798e-03,-9.794410575672314323e+00
-1.404923861767811907e-02,-7.170885376288409392e-03,-9.800464029412541578e+00
-7.806800954949655183e-04,-1.680784290879534814e-04,-9.807685762210406111e+00
4.689007915127810580e-03,3.870709277065558385e-03,-9.789651813254197421e+00
2.215538721024004252e-04,-2.385371626977619407e-03,-9.800070309036588156e+00
1.959318228908189102e-03,1.156643025492818701e-02,-9.803041297533173548e+00
-4.126287090373680945e-03,-8.115666009991067548e-03,-9.792320921164266778e+00
-3.111924540537934578e-03,-3.818155432365502068e-03,-9.785458681142150894e+00
3.947543036593924667e-05,4.556412330153508834e-03,-9.802947017052566991e+00
-7.565175346757039253e-03,1.009209447003390180e-02,-9.802416325090845817e+00
-4.531975303375952550e-03,1.590931365602218494e-03,-9.797107330533417979e+00
3.229886365284169187e-03,1.212181797195991241e-04,-9.789529099998770079e+00
-2.210677622834713793e-03,-1.054994638968459377e-03,-9.789764461803725837e+00
-8.447004588628517817e-04,6.653834863526520219e-03,-9.795706199769089295e+00
-1.947394231439446245e-03,9.701748936570156120e-03,-9.811098700361744918e+00
-6.826457694134696955e-03,6.265802965947735430e-04,-9.804741032875385898e+00
2.658646688234545061e-04,-2.454566053716043372e-03,-9.792319244888565422e+00
-2.579632896844517593e-03,-2.114610973471326826e-03,-9.792929978288777093e+00
3.186841709891751872e-03,9.090987759578510359e-04,-9.793485695975972405e+00
-7.273588916674693719e-03,3.083374253423494266e-03,-9.784694392196536583e+00
-5.375075797969428373e-03,-4.892862555494012326e-03,-9.796454129659920795e+00
-1.062633347912591425e-03,-3.715513448722972123e-03,-9.795898840137731156e+00
1.852594004793823483e-03,-7.431737118900156539e-04,-9.794690911294516411e+00
-8.577783364199635142e-04,-1.612640617668841675e-03,-9.799719021228462168e+00
6.984913316035058078e-03,2.120308483350861941e-03,-9.788795390996765988e+00
-1.262597555355947192e-02,3.819459057868460333e-03,-9.803295742865866913e+00
7.160396888765545829e-03,5.985883216861276335e-03,-9.794966866307975195e+00
1.008216368728923843e-03,-1.796998980469324391e-03,-9.793812873421767762e+00
-7.057583730634636211e-03,2.417227521032694348e-04,-9.792229576726056095e+00
9.572773103485205130e-04,-1.240334354266700058e-02,-9.800644855396489774e+00
4.712828623487378549e-03,-2.028939477983720749e-03,-9.796639241820802368e+00
-5.513294188891674184e-03,7.538166629631974820e-03,-9.795451148259573415e+00
-8.818165849042554350e-03,-7.773151150049683244e-04,-9.790937922707511731e+00
-1.228974154339889909e-03,3.908359310182212519e-03,-9.784166111949735622e+00
2.523893004232561493e-03,3.008624680216397205e-03,-9.803322072788178687e+00
-5.672404213381340189e-03,-4.772259670848024750e-03,-9.794574682023318601e+00
-7.304626711620269483e-03,5.374613860479150913e-03,-9.795564110189873830e+00
-1.536182702496969319e-03,1.153659566076025052e-03,-9.788206417921523794e+00
6.350133717837135212e-03,-8.958769442853330503e-03,-9.803129659400802609e+00
-7.169213522937350124e-04,-1.440447304681067350e-03,-9.789340767575982483e+00
1.191826932323758123e-02,5.793397551826929680e-04,-9.794170866967323974e+00
2.956296490787647686e-03,-1.432635472998790814e-02,-9.800092512624164698e+00
-5.053770827420444624e-03,2.344277537171567723e-03,-9.790242467819838978e+00
1.363286667944124935e-03,2.966459625112812383e-04,-9.788605384739691218e+00
2.634265809000231606e-03,-7.308210088184694669e-03,-9.801577899210897726e+00
1.813181221199630959e-03,1.836109662261552070e-03,-9.799516263150600537e+00
9.158879517364972240e-04,-3.821058566564640262e-03,-9.798830308564351554e+00
-1.923087808662553560e-03,-1.440708142493994474e-02,-9.788739049470580156e+00
3.412271003170006065e-03,-5.714053480222920645e-03,-9.790664642663552186e+00
4.571869871219609582e-03,-3.143340699628027497e-03,-9.802496223851461465e+00
4.010710417158408307e-03,3.850436871278664283e-03,-9.797494757430831314e+00
5.761348961021284590e-03,-1.676830599689065060e-02,-9.789848520194460946e+00
-8.642133874617912576e-03,2.314593895497010084e-03,-9.803563352937942454e+00
-1.460642233296429978e-03,1.079848926432801221e-04,-9.791611507200732589e+00
-3.090000329269380723e-03,1.374280557474726180e-03,-9.790910770611038316e+00
2.820982471421281008e-03,-4.896235612413312420e-03,-9.800621764828335358e+00
5.363321381522050818e-03,8.388377746659125833e-03,-9.792942146659479263e+00
4.892749835541764306e-03,1.923225240280175454e-04,-9.798959079821230489e+00
9.014727745586144630e-04,9.067648769137530776e-03,-9.795661034100655584e+00
5.033301099257681509e-03,1.160829929156957652e-02,-9.793641507073338914e+00
2.657281049498740229e-03,1.334086500870137419e-03,-9.786529037068669723e+00
6.259708662357868318e-03,-8.420161914670593398e-03,-9.794391913926885351e+00
-1.192668019314794148e-03,4.719124572062367851e-03,-9.803117153250292759e+00
-2.989160718702479295e-03,-5.040673321035392569e-03,-9.796825701556922894e+00
-2.524992874109000343e-04,-4.145724808106946856e-04,-9.786355227410544089e+00
8.485219453836418974e-04,-3.292177639361476603e-04,-9.793181343122641991e+00
1.500885824857049614e-03,-2.471729761426646760e-04,-9.792214482835548850e+00
-1.373601256738609441e-03,-2.963296072795252711e-03,-9.790538927178596751e+00
-2.316856771106955148e-03,-4.635797716421431389e-03,-9.793036585393592119e+00
-6.278704962935834771e-03,-2.575218829857799010e-03,-9.795419067371650357e+00
1.413816838869097481e-03,9.148116692361117630e-03,-9.793844270442200184e+00
-2.008230210917744812e-03,5.432701016456134915e-03,-9.796592208625968468e+00
-1.280390523356812228e-02,-9.283117725564344301e-04,-9.794612140947128509e+00
4.812437052514663763e-03,1.093083544602873550e-03,-9.788508542523990386e+00
3.752954490174514445e-03,7.965350150844341523e-04,-9.792468929612880402e+00
-6.856646725412116755e-03,1.217841379939748388e-03,-9.786617879509446283e+00
-1.923417362213092113e-04,8.084437351237183308e-03,-9.786450042417826012e+00
-6.693025136655729283e-03,-6.747604084938911735e-03,-9.794858458847603089e+00
-8.937256766857691256e-03,4.781429161160780268e-03,-9.808562457840837467e+00
1.613708550165811936e-03,1.021046620087835959e-03,-9.788537429030000681e+00
-7.628685214127347430e-03,-1.381810913115423881e-02,-9.794899177255784295e+00
-3.615860179807920544e-03,1.751950729999352365e-03,-9.792306534804804841e+00
4.966606825367003188e-03,-8.821578460795171175e-03,-9.801111975395818021e+00
-4.435464345259721927e-03,-3.315739895198129765e-04,-9.790784288725927098e+00
-8.218882086548589747e-03,7.120045841864998046e-03,-9.793960570542743937e+00
-5.069547794009864571e-03,9.328531348145710543e-04,-9.794769902712653575e+00
3.992200380810602238e-03,6.317576415341067189e-03,-9.793622234156599049e+00
5.825687287174584859e-03,-9.350152080320539094e-04,-9.787210840493584030e+00
-6.891187465476246747e-04,4.050531695434682940e-04,-9.793550946457880713e+00
4.197598450748424997e-03,4.040444264060470345e-03,-9.793825867859485612e+00
-8.133880401092259682e-03,-1.463415761225431025e-03,-9.794615420063038869e+00
-3.527428298563300372e-03,8.812691281593723266e-03,-9.796362100165321607e+00
-1.995149221230306091e-03,-4.133893507495298852e-03,-9.803842735295940969e+00
-4.590510563504185057e-03,-7.924425250174052179e-03,-9.785983730174761419e+00
2.418060423603158714e-03,-2.594299025280559327e-03,-9.792429766761108212e+00
-5.301192029184142659e-03,1.315124938566877410e-03,-9.794546678745051693e+00
1.380074669725634502e-04,3.857070217691015157e-03,-9.799024774731115883e+00
2.348889003593030659e-03,3.717650066443796506e-03,-9.791548215849582348e+00
-4.972066531820098188e-03,-8.146168071600928817e-04,-9.797754032036579019e+00
5.500723981646145344e-03,-4.547010427046754497e-03,-9.790900160616988757e+00
1.140836474790581437e-02,-5.845863333695688023e-03,-9.786836214198570971e+00
1.406768414371022992e-02,8.938516596341591208e-03,-9.791489586666695999e+00
1.798386095163032527e-03,-3.703920685310265869e-03,-9.793145495564022696e+00
1.742386940413206140e-03,1.886280263249333735e-03,-9.796353355035423149e+00
-3.144473670696736490e-03,-7.479664372448326104e-03,-9.796670778661997758e+00
-4.337293672379225092e-03,7.409666533150159953e-03,-9.789791682291554054e+00
1.871703688243363511e-03,-7.190990978534443114e-03,-9.795934326511053669e+00
3.286736264022409575e-03,-3.497592668347324855e-03,-9.792263461323475582e+00
-5.384657116201534664e-03,2.251635332771019602e-03,-9.789572989315072249e+00
-9.330263874477783687e-03,5.530304514136932456e-03,-9.799238017235323284e+00
-6.042910418887724282e-03,2.875724272547568790e-03,-9.796893066082724033e+00
-4.994341112771437385e-03,3.014381961381924595e-03,-9.793919727781627671e+00
-4.639225053790365684e-03,-3.870824187685471037e-03,-9.791604377644340218e+00
4.408462423177228647e-03,2.056251873744402610e-03,-9.790441012651800889e+00
-4.678228913931526040e-04,1.697778714421363695e-03,-9.794339276588825527e+00
-1.853109425559274154e-03,1.489677592632899584e-03,-9.792207784982673857e+00
9.202298684456960975e-03,-2.209540362912577448e-03,-9.796755966127735249e+00
-1.708837218616176645e-04,3.273681069479716758e-03,-9.794768978771994483e+00
7.848699642523625231e-04,-4.827554728531521094e-04,-9.798797006984436564e+00
1.753017525569180567e-03,6.266125168487646571e-03,-9.800438474125719779e+00
-2.237510481689094274e-03,-3.399181702918200459e-03,-9.796661426713813015e+00
-8.023842264028503701e-03,6.044682778426573207e-03,-9.797750929657599528e+00
1.672048189853191308e-03,-2.343429687225726150e-03,-9.789806155032868773e+00
3.755615779958212941e-03,4.393200596482168228e-03,-9.801835249282220275e+00
6.712802203072697899e-03,-6.585953778969869804e-03,-9.790481290241507040e+00
3.842367871287991152e-03,1.823196129427778842e-03,-9.796911218633646001e+00
-5.771988278242790385e-03,-3.703895712354506996e-03,-9.792436535004371834e+00
-2.866567883294978379e-03,8.572495541878593500e-03,-9.789726843365350817e+00
-5.149193982601746322e-03,3.595350008462773646e-03,-9.793795419290672655e+00
7.750871409243209088e-03,-8.795064086394421138e-03,-9.795802378161685198e+00
-5.732633778336307731e-03,-4.451234765831682885e-03,-9.799562146267950524e+00
7.662164974971799429e-03,9.145916007857058782e-04,-9.787801364171949459e+00
-4.568844683213450948e-03,6.952830854938378026e-03,-9.784556873394134158e+00
-2.963282680903624525e-03,7.631086636685820851e-03,-9.792696516516677718e+00
2.792089043947195044e-03,5.968560707127583409e-03,-9.794508151324665235e+00
-9.022235310579744191e-03,-1.983004239972102102e-03,-9.803290786416022584e+00
-7.375226057343479275e-03,3.174241039617371838e-03,-9.803380484505355597e+00
-7.827955658470846581e-03,1.163417283878236813e-03,-9.794703553358033332e+00
7.883512297493337762e-03,1.263488895124651595e-02,-9.789142819321158484e+00
4.976092979663035258e-03,7.345307099452180136e-05,-9.793443887538206383e+00
1.126617442417320383e-02,3.209102875666680578e-04,-9.789961159772586186e+00
5.085940423462989015e-04,1.116533266429564674e-03,-9.794024457007644457e+00
4.215721678670639183e-03,-6.788167506761144231e-04,-9.796433039517834729e+00
-3.955228886463675771e-03,-7.032337937063684076e-03,-9.793945569440188237e+00
5.188892996888042237e-03,-1.235379870171942522e-03,-9.788069670404055955e+00
2.435353087428173552e-03,-3.843166833063176892e-03,-9.780403285209175124e+00
-1.740077106878709905e-03,-1.294199552450001414e-02,-9.800922073115360789e+00
-1.031899383462434082e-03,4.937931479552991505e-03,-9.793451647635826873e+00
-2.206431904983810564e-03,1.888634644472150272e-03,-9.793150844362227048e+00
-1.257854245867900435e-02,-1.787974004666823468e-03,-9.795765864625144204e+00
3.428116526871240362e-03,7.149837749761991240e-03,-9.797019278543219301e+00
4.659325687001427069e-04,-2.744891782645837199e-03,-9.799762328648427001e+00
1.182438269440230609e-03,-3.051408934397406916e-03,-9.790725759807978434e+00
6.293820229857493599e-03,2.238459111119180198e-03,-9.791911695182045960e+00
4.939269954810549023e-04,6.768406324195961991e-03,-9.799300780977194592e+00
2.370524683767920911e-03,-2.253712658085516365e-03,-9.798767203243242463e+00
2.580193387688563701e-03,-9.291096787815945283e-04,-9.794319280678521977e+00
3.094523783312711418e-04,-3.574689625144081284e-03,-9.798469095883296731e+00
-1.074432210634890250e-02,2.137538587688159013e-03,-9.797779149871539417e+00
1.971802633219017515e-03,-1.646857688630457396e-03,-9.788317986017158745e+00
-2.157151013279591783e-03,2.462211739645664334e-03,-9.791654410657764984e+00
-8.556822167038988930e-03,-1.313246881205705962e-03,-9.784750275681110665e+00
-9.566295660862743919e-04,-3.649212352838491265e-03,-9.801204292402973195e+00
-5.768310797641509717e-03,-5.451758394101184103e-03,-9.793588515277797057e+00
-4.839663089336724774e-03,2.501229273384043481e-03,-9.803762273598339405e+00
3.111462564495441879e-03,3.936969850195396955e-03,-9.802147822714529113e+00
2.671030943239101427e-03,1.439039502269653416e-03,-9.802425030446469734e+00
-1.003775338573466942e-03,-1.455516450077830705e-03,-9.799293615957793691e+00
-2.025930619423600091e-03,6.777236481499736634e-03,-9.793439429783896699e+00
3.714730338209348837e-03,-4.830148964188376096e-03,-9.798149620443044938e+00
-2.234504141954833743e-03,3.097547269910557420e-03,-9.791311774270768709e+00
2.805124611965332561e-03,-7.561420460096435897e-03,-9.791166018998172405e+00
-4.677273940366892882e-03,1.736861328483293651e-03,-9.787095551183114139e+00
-7.016444211621804001e-05,9.119667923736779480e-03,-9.797519328278184503e+00
7.923703531800153216e-03,-6.779213282966233857e-03,-9.793002423813057078e+00
-7.479783385717919675e-03,-5.350506840779246237e-03,-9.783280179329926440e+00
-7.027703133669717384e-03,-1.598182636024725258e-04,-9.803012691020889235e+00
-2.151307008791193773e-03,1.024592175960113358e-02,-9.795313231017203748e+00
-2.459078811262698470e-03,4.529619741501338982e-03,-9.787204772319778812e+00
1.725996407176735511e-03,7.335443582952272910e-03,-9.794472766677394304e+00
-7.589984889055847311e-04,9.338718312387366601e-04,-9.793466428796548939e+00
2.073080118522013533e-03,-5.023374507360814541e-03,-9.798082270824863826e+00
-3.549102393246226107e-03,4.320684253178280407e-03,-9.792013692351563492e+00
-1.251259689709887735e-03,7.756111670652179185e-03,-9.804418597840010463e+00
-1.752278771813389150e-03,7.065086983847895666e-04,-9.786458078405543048e+00
9.008825324421531125e-03,-8.205806626098506758e-04,-9.797991365504490346e+00
2.177643607792835098e-03,5.005902547432060194e-03,-9.787311903744578601e+00
4.052472324055173209e-04,9.166356471684981508e-03,-9.790434600477045279e+00
4.133218757861026674e-03,1.101932227034570959e-03,-9.783276563298274553e+00
-4.624320304315291189e-03,3.535612132854695387e-04,-9.795848244891269374e+00
-3.873390818503761723e-03,2.559692542215912057e-03,-9.795498099218944432e+00
-1.462008487113798834e-03,3.603320282324402489e-04,-9.794436980133930604e+00
1.203966848994413898e-02,5.482903731811041362e-03,-9.797103865577465598e+00
-4.485957418181886307e-03,-7.496830244823838620e-03,-9.793397965207354616e+00
-7.845096658027161593e-03,-4.931450277508729954e-03,-9.798225230700390753e+00
-6.056836220574347320e-03,2.753523433977258551e-03,-9.801595221094565602e+00
2.730314659302774880e-03,3.673564827440446278e-03,-9.790986998279503695e+00
-4.110324955086229123e-03,1.030250683220738797e-03,-9.793208361520985505e+00
-9.847280925008132513e-04,-4.493055224469587154e-03,-9.802871733515065245e+00
1.044286295975142831e-02,2.332889314352062926e-03,-9.799052358688014053e+00
4.425529343169106074e-03,-1.358504873606019431e-02,-9.798514754295471363e+00
7.821269799852150276e-03,-3.354419868211680044e-03,-9.798480514105545325e+00
-2.303541020272640866e-03,6.493099983423796179e-05,-9.794677138224509250e+00
7.744524700484892339e-03,-3.093593583197285554e-03,-9.788966490577976742e+00
