gyro_x (deg/s),gyro_y (deg/s),gyro_z (deg/s)
-2.831833918536233799e-02,-7.204062374631996224e-03,8.571698889866334603e-02
-4.537678534589160984e-03,8.760660196638911726e-03,-8.497748317494811798e-02
-9.551391161839878352e-02,-4.163261384704092238e-02,8.624711414531299877e-04
-3.151407715763229755e-02,-5.013733566228224109e-02,8.109544238857649412e-02
-4.956654924579051436e-02,-5.769571940214159728e-02,7.360391228459924572e-03
-1.303349015692403107e-02,5.907752961482586052e-02,3.424339710574351298e-02
-8.850163513304698526e-03,2.956577555729866802e-02,-2.628561706866456172e-03
2.996841579863800467e-02,-1.056427674014554820e-02,-3.105139573942933620e-02
-7.701555325323540535e-02,-1.707120361823775967e-02,-6.033907897751030619e-02
-1.898507333120092724e-03,-2.498186829147048746e-02,1.804785090241728396e-02
-1.665136267996357791e-02,2.964977301961127173e-02,2.525371385873337662e-02
5.802077862169284853e-03,1.813161564682741478e-02,-1.289544877659215827e-01
1.740690019764775526e-02,6.881030107221449386e-03,2.793103011768033328e-02
-5.111649684444798114e-02,1.651174901827011376e-02,-8.600300687542243583e-03
-1.656421539459967604e-02,1.992389545831037626e-02,-4.190584953464859819e-02
-1.364714942556109929e-02,-2.976310613303729743e-02,-6.866546144404529761e-02
-1.299801165737463071e-02,-1.005858992851566035e-03,8.146729876746464094e-02
1.343036717411826356e-02,-1.536404726811878112e-02,-4.126885522692291114e-02
4.421728098551600677e-02,1.889436124311979354e-02,1.355854349053253194e-01
-6.791717793427558096e-03,3.777120186142869651e-02,2.127592514110765790e-02
1.918288248653873124e-02,-1.289897214197778356e-02,4.699322605613350662e-02
-2.739218538759089633e-02,1.456272172767458534e-03,6.219275719392337171e-03
-7.804780189471689084e-03,-1.446029767704877511e-02,-6.066537169565673453e-03
9.172965680846388581e-02,1.639426313095215587e-03,-1.109528146328730286e-01
-5.458705626955470507e-03,1.842018360527299808e-02,3.233007400965005884e-02
1.874078137509017569e-02,5.997540923396729035e-02,-5.173268507597296451e-02
-3.647755061510352809e-02,5.551528920372935001e-03,3.575002655670344448e-02
6.262285876769671522e-02,3.269402820125313913e-02,2.179924152711808574e-02
1.176513823032540595e-01,2.216926690377619275e-02,-5.869093399056945354e-02
-5.200411843344428242e-02,1.971909666825645557e-02,-1.797947958961045381e-02
-2.749525449599632757e-03,-2.014931557047058841e-03,-1.256492665997420411e-04
3.683723499543439112e-02,-4.866535529031606327e-02,6.693444826773634060e-02
7.513629869060869937e-02,6.693706684915250171e-02,1.574541128972537993e-02
6.763373509589407084e-02,5.409726461613892368e-02,1.954737998681909880e-02
-5.487116086416462396e-02,8.287446890210893591e-02,-2.255436167351925619e-02
2.033523316546098983e-02,-1.014176359404925926e-01,-6.086551412394885542e-03
-5.192369583017006351e-02,-9.515574683330171868e-02,-4.531768449328345619e-03
4.504303097027096553e-02,-2.171926989627544213e-02,-2.002656009176408819e-02
5.569384381235032572e-02,-1.747544973362719772e-02,6.789074944180453763e-02
7.548804828280890333e-02,-1.112123642456796374e-02,6.557130274129692460e-02
-4.071913570054642301e-02,6.072253936826188525e-02,-2.248350756907130377e-02
1.456756826072385692e-02,1.506658591097038702e-01,3.751490886135249933e-03
-2.203587424149550111e-02,-1.319823036089683328e-02,4.415861668157364250e-02
-1.939728172171474238e-02,3.662561564224568050e-02,-1.307502127272925155e-02
-3.000566836281168964e-02,-1.048314428875813872e-02,4.281532906301086655e-02
9.349322681923293021e-02,-5.849649879741711245e-02,1.183156222339325388e-02
1.727820849181633742e-02,6.144596235887103686e-02,2.175770346648847609e-02
9.681640212396355749e-02,7.934308066299063100e-02,7.575944271209483771e-02
-2.727836636290196723e-02,-1.679782549049649298e-02,8.697132433897995785e-02
7.710240783394774200e-02,-3.391692085794555892e-03,-3.732276401327982301e-02
4.607382180761279006e-02,4.436717080884642478e-02,-3.926321612487924939e-02
-3.246533886232626925e-02,-1.211097524372324943e-02,-8.194684582164093664e-03
6.325705148331019212e-02,3.391904184833182540e-02,8.505441649174338981e-02
1.537127042997718561e-03,8.763036590082543681e-03,6.227871782264454703e-02
8.151145458852281089e-02,-4.071932284322901489e-03,-1.946037610122434286e-02
6.059795587493636143e-02,-3.651431109316870954e-02,-8.898163492926518259e-02
-3.917318026454891938e-02,2.685968862203183538e-02,9.689546179978535817e-03
1.865536634866692524e-03,-7.197390457038246349e-03,8.298240655390722031e-02
-1.313451279870351054e-02,-1.766077105480969717e-02,-2.462872785380695439e-03
-1.194084531653736864e-03,-9.343888482263423487e-03,-3.419447777230238267e-02
5.598453936065911352e-02,2.665969737887414169e-03,-1.157911352077241503e-02
1.010021807455916271e-01,2.400136881185795448e-02,1.631090272958261866e-02
4.000367472448736195e-02,1.712514382924745782e-02,1.768714446529852033e-02
-1.683851515672988436e-02,4.164468114956263595e-02,-4.466465172167094488e-02
5.730747578372049483e-02,1.549504564159943573e-02,4.892319766424414740e-02
3.297652592095037111e-02,1.678551450259392966e-02,-1.854028804761760282e-02
5.061980641442809237e-02,6.005764029982954555e-02,-4.046030095289002843e-02
3.672663549530196664e-02,1.076885675764283415e-02,3.398437965963654796e-03
-1.783586835918390609e-02,6.415511904805795695e-02,-1.718624409199294781e-02
3.746991300751488507e-02,-2.763433618589567278e-02,2.058916612803009250e-02
2.240767944765803543e-02,-1.383749857449789386e-02,-3.871360416431271489e-02
3.799182584392678252e-02,-8.352642643906028896e-02,5.354088434787573902e-02
-9.753986892786885299e-03,2.278320097108478201e-02,1.874009812920602452e-02
-5.188011317922771454e-02,5.695692482696099179e-02,3.258616958686260529e-02
1.583855326273859304e-02,7.029403509566604230e-03,1.724087672103265245e-02
3.097543291992178524e-02,-4.386357798746969711e-02,3.723900939909903507e-02
-1.744290064109965677e-02,-6.155238998509836995e-02,-1.000671307871023874e-01
3.929882105614344173e-02,-4.736002487341080258e-02,2.558258929005254121e-03
2.238298275374006260e-03,-1.578573287053111314e-03,-3.362407046959117740e-02
3.245515395612854487e-02,2.609233321383443507e-02,3.718908506313981649e-02
5.485554858438752845e-02,3.877909959912598931e-02,-1.782052412875566587e-04
7.224153804601085062e-03,4.979376213864484396e-02,-3.243382575394885767e-03
-2.209462519525743143e-02,1.990562449596170163e-03,3.569043731858948486e-04
4.299910351759200083e-02,5.954929082185622669e-02,4.339839921375468479e-02
1.301370856070790429e-02,-4.870702176635625241e-02,-2.102358359476570043e-02
4.144658159832942390e-02,-5.972036492177425215e-02,-6.527884902568804881e-02
7.796675035998465453e-02,-2.679213523320830848e-03,-4.664936013946419796e-02
6.838869466023662913e-02,-5.017332375160074576e-02,-5.536545606441462680e-02
-4.234966023998021183e-04,3.478945077376032619e-02,8.868812584131394736e-04
7.332219482332283551e-03,-1.476206822579522425e-02,-5.319638304611788715e-04
-3.113074865852467205e-02,-2.986553433804035526e-02,-1.465431320238429549e-02
-3.921924675887291517e-02,2.509439408983941272e-02,-8.024101866173208308e-03
-6.733741550276198251e-02,-3.427964550197674931e-02,7.833082318531527435e-03
2.802197503037737528e-02,5.431210839664744883e-02,-4.576593856254763948e-02
-1.319070574507105222e-02,-8.300391477601490320e-03,-1.223893711858857480e-02
-3.126561298260630006e-02,3.425014776343308226e-02,3.024064392417780481e-03
3.334723608867562472e-02,-6.769304811628838736e-02,4.458467054038195605e-03
1.055812459089971733e-01,-1.243193678679546839e-02,-9.815977665875505465e-02
4.906137095373764960e-03,-2.890463470740622931e-02,2.408844454873716387e-02
-4.537198341433942850e-02,-1.438082119762115405e-02,-3.912223131666817816e-02
-6.233063213741177160e-03,8.781992483704104124e-02,-7.410543976670369570e-02
3.054102038001309596e-02,-4.233906167158146827e-02,-6.702607245437203209e-02
1.494122936285293031e-02,-1.151247373292530948e-02,-8.692174796500702627e-02
2.256287673335261729e-02,-5.209210998811072274e-02,1.374895797608802900e-03
-3.266379684465701982e-02,5.108240617460135802e-02,2.619941412517139828e-02
-7.437552113826485789e-02,-3.745222789350234616e-02,4.884707986825267273e-02
5.760263228543477387e-02,1.122773464992779004e-02,3.330551496321310784e-02
9.357914001973149237e-03,3.334073298766911109e-02,3.969549299236087465e-03
-2.936728254776659053e-02,-1.431399345755516965e-02,-6.408766716953757936e-02
-4.587575742681076346e-02,2.969497085017484481e-02,6.722546030240129922e-02
1.800683568808859360e-03,5.764429530227659082e-02,3.410989774168370070e-02
-3.286914078623864172e-02,-5.147233927759330835e-02,-6.485013070192813256e-02
-1.445952753401970499e-02,7.558201475757043986e-02,-3.221919004194798326e-03
1.126680751519465624e-02,-9.891053027877923232e-02,-1.072923712336661985e-02
3.004460373962154242e-03,-8.165694188631637471e-03,4.846378909999169045e-03
3.199088639473132711e-02,-4.668127130072081965e-02,3.633517521103996756e-02
1.573067772162466821e-02,3.649726068808328144e-02,4.523615723400283700e-02
5.327487640212969985e-03,-6.105437183547109126e-02,3.145872777923038044e-02
-2.180367363186434121e-02,-3.873849397731009975e-02,8.081384869812050994e-03
-3.061227858505231533e-02,2.853686797694867175e-02,1.911081534335277998e-02
-4.986691969376545741e-02,6.385938796922178973e-02,2.522747235446366060e-02
-6.623813699411586903e-03,-2.023287265764881979e-02,8.382131370955017702e-02
4.268537685507597934e-02,3.010438786390039895e-02,-4.503749027613003497e-02
-4.837351277574503811e-02,-2.575825875752856681e-02,3.012566554575482700e-03
-3.800111109092834533e-02,-9.817295773077548693e-02,-4.138475350712915446e-02
3.122090923256093734e-02,-8.560087061324597388e-03,3.604618952839748480e-02
2.192938373434775295e-02,-2.040279746984383774e-02,6.468643120451432471e-02
6.596476344394842928e-03,-6.757960792132711170e-02,6.241483732664750150e-02
-2.725909774740126537e-02,2.587548704431512706e-02,4.903642524452447859e-02
9.849525605046319243e-02,-3.537605586230400945e-02,-4.789896281508561338e-02
-3.479143006351796685e-02,-3.616379109127631358e-02,1.137884340337070796e-02
6.945300341449977405e-03,-2.705285555538606418e-02,-1.185037366127951290e-02
-5.162665895107704239e-02,-5.170854228193730306e-02,1.242554615007245879e-02
-4.371181478720217138e-03,-1.647892006112808630e-02,1.460048926521471252e-02
-3.252962280184828331e-02,-4.358447623920602698e-02,1.256189715026331637e-02
-9.612813046290373531e-02,4.020609999915313731e-02,-6.941777482754811490e-02
-2.647641127683573667e-02,3.387986326474633735e-03,-5.872553713592818490e-03
-2.619010795804525490e-02,-9.595164605979682182e-02,3.249234131762256811e-02
6.318343650178785686e-02,-5.190137208632020910e-02,-1.513416441601774963e-03
2.718807468218422535e-02,-5.056914920277092579e-02,-1.789589129890622674e-02
2.103092951530580526e-02,-2.827820064356318004e-03,2.320355850160391758e-04
1.950692764345416785e-03,1.391954650777874232e-02,-6.253178151079386016e-02
-5.182299911345983334e-02,1.046656148646599310e-01,-3.040979794616470791e-02
5.811799957826246227e-02,2.348271064100856606e-02,-1.596399684073569747e-02
-6.819269519512875799e-02,3.434729006875907736e-02,-2.570476663164373773e-02
1.817030592813754977e-03,1.032165531126191665e-01,2.549367353500131550e-02
9.117589461569122755e-02,7.441251823153499645e-02,-9.926911515473790804e-02
4.483605078382694314e-02,4.073563489370007895e-02,-6.522850370737348635e-02
7.378513953731682777e-03,-6.429812792730697953e-03,1.074257750480988802e-02
-3.067286519033392278e-02,-3.112357438444088992e-02,-3.041874443894506883e-02
-2.102423450386635070e-02,-5.011251932209177459e-03,-3.007834192230901191e-02
9.069305266082181016e-02,-5.487768376071713167e-02,-4.273365576229398721e-02
-5.381875904854628578e-02,-3.395126316734627114e-02,2.424276289356501121e-02
8.781568860539464005e-02,-2.846033506410499542e-02,-4.701264595050234224e-02
-2.711447342359760149e-02,-5.636025312577444546e-02,-8.896200937108338785e-03
-3.473349589048428665e-02,-2.911443158370592352e-02,2.174445905143387869e-02
1.639245965394050056e-02,4.528212034844558004e-04,2.049826555913246764e-02
2.263115666961074916e-03,3.653292441228150195e-02,-7.430869874404633438e-03
-8.086942757641686630e-02,-2.231445430559354098e-02,-1.401700009527545663e-04
-2.362972916995676950e-02,-2.336920453844313489e-02,4.797732596029988944e-02
2.593338669789783599e-02,-1.222614503554941001e-01,-3.449031802395393503e-02
2.106556102340299136e-02,-5.367059760601348983e-02,6.088089549189362737e-02
-7.994563110756224000e-02,-3.189936561846547919e-02,1.262408592056372611e-02
-3.296504437065186227e-02,-1.190910384283087355e-02,6.222559397339101628e-02
-4.761981389958237776e-03,3.606564413638406463e-02,9.628571668988346322e-02
4.894750376878048009e-02,1.593809915573153949e-02,4.115762781218015171e-02
4.819271200428629220e-02,8.912641982529350207e-03,-1.192258720299661518e-04
9.252032298207549244e-03,4.043096619032111178e-02,-1.410566376529936994e-02
-1.144256636190024365e-02,-7.798013894952465774e-02,1.126819572120751206e-02
-7.249783156990985411e-02,5.413717482965967054e-02,2.394873168505819508e-02
2.153189102378618575e-02,-4.005439391641496538e-02,-8.468974071481401300e-02
-3.362340233263116929e-02,-9.121406479502759679e-02,6.402069932615948866e-02
-1.937133212780311337e-03,-1.131104455631421965e-02,6.308914670746001985e-02
4.511271459215070341e-03,3.502584357841795337e-02,-3.529148455217147318e-02
3.987188200220316558e-02,8.753439643246690993e-02,-2.395291529820541953e-03
7.302006041677469583e-02,1.073630926522899966e-03,8.549483302096811191e-03
7.253823366326583866e-02,-3.286670652205708060e-02,-5.196491405153055160e-02
-6.036857491692220606e-02,-3.349141175689720074e-03,2.111997340698429718e-02
4.132817138412003821e-02,-5.115533395117701637e-02,3.935503632263981366e-02
2.631652803104993221e-02,9.919245648315321712e-03,-9.971151869284612321e-04
-1.156124128619995077e-02,1.620524302669780481e-02,-1.081997453856616345e-02
-4.824698217315797483e-02,-3.489073620922626684e-02,-1.149770375648280323e-02
-3.716466517793935720e-02,-3.049320472731623446e-02,-7.694564882653983848e-03
2.295894021335555951e-02,4.048020993854943052e-03,7.157973490159470938e-03
-2.142724304483624095e-02,-4.137119450143730143e-02,-5.100486899880971731e-02
6.468054760579033946e-02,-9.628463474837377356e-02,-1.090814287336012121e-02
8.568918478642478104e-03,-2.080466917345987973e-02,2.503593683510164924e-02
2.559038257570698735e-02,4.953860743919146631e-02,5.419691944709943004e-02
-6.149798771810524589e-02,5.171940039447121135e-02,-1.779675612602215793e-04
4.681750932001923354e-02,6.843751374080306316e-02,-4.902336894177777155e-02
-2.300129673853284346e-02,-2.945981049547137954e-03,4.177906678116313430e-03
-1.328244954835249188e-02,2.557429010219228541e-02,-1.079260203994414878e-02
-6.104978349924562731e-02,8.473484509935108600e-02,-3.111334015542354509e-04
7.686352983275757111e-02,6.740224753679127092e-04,-6.648036037567517376e-02
3.008587808128785485e-02,3.423025688005210815e-02,2.094542517326688016e-02
1.797761522147918369e-03,3.802712319429559385e-03,3.190549388918981211e-02
2.609082368751583850e-02,2.741235597628126353e-02,-5.241356156407354916e-02
4.590325161365144818e-02,-1.744973316691046574e-03,-6.593429113623630600e-02
3.679022406332711510e-04,1.068360386197635820e-01,-7.027482396972408764e-03
2.520135108809915328e-02,1.322504814276887451e-02,4.956321143751067637e-02
-3.359838718873423002e-02,-5.335963766303528782e-02,-2.374920469401169132e-02
-7.061764540845157090e-02,-1.736772184072613370e-02,-2.523712926874875032e-03
2.801388886616974425e-02,-6.285527059751257195e-02,6.369175839356248058e-03
-3.524621462288229923e-02,4.888525163412059393e-02,-4.756013688735136191e-02
3.205676948798141107e-02,-1.511432700034248504e-02,6.484772168352007440e-03
-4.907466447506421414e-02,1.311268431196481931e-03,-7.196995474731168740e-02
-1.392863249955544544e-02,-2.591253533558388056e-02,5.249203095089241544e-02
2.027411785589556398e-02,3.743097526885388188e-02,-6.288795846589376182e-02
4.236371512929537619e-02,-1.235238000790156616e-02,-9.746642668788743635e-02
-8.439755711361851542e-03,-1.908869555106965793e-02,-6.635673339928346848e-02
3.286205938272857008e-02,-3.991531545611932269e-02,2.157747996649098457e-02
-2.478623730188566146e-02,-2.646658443997146684e-02,-3.189495721089295743e-02
-4.235066401353239363e-02,2.490891083916863674e-02,-3.268697044127032159e-02
-1.158819991264301366e-02,1.469590727685968733e-02,3.407845029189678770e-02
-5.497134920980253220e-02,1.456781964830761861e-02,2.495221428224865447e-03
-3.244151741882724763e-03,2.239996328229203193e-02,-3.659031480413853926e-02
1.504180542544542032e-02,-4.874011577060650274e-03,5.340976944296258605e-02
4.301652554052550620e-02,1.049244186910848649e-02,-2.620310036887627675e-02
-2.140792176949336822e-02,-7.542735493542728452e-03,-7.134723903872848549e-02
-9.822974215671918807e-02,-2.638702848011744567e-02,-7.387856977962901917e-02
6.127531236644114671e-02,4.152288736537100913e-03,1.222813847111047514e-01
-5.517638668228600635e-02,1.978176555186158050e-02,-6.914670429106431482e-02
8.081399080187039174e-02,4.816329022624703249e-02,2.347970913150391678e-02
-4.239162262119964067e-03,-2.969507259009511110e-02,2.299523938083774741e-02
-2.673499119118251735e-02,6.451635746045872484e-03,-2.436342046745521711e-02
-1.356925446133217493e-02,-3.857775521913590216e-02,2.670070987940393464e-02
-1.527256395525549044e-02,-5.470070232996925713e-02,-9.978730587902200772e-03
-5.383466631295751037e-02,5.349113579059441154e-02,4.997185455135316756e-02
6.930437993599788959e-02,-3.431535345198238884e-02,-1.221181269050629695e-02
4.613115234759131850e-02,-2.349857390319898265e-02,4.477039356976081352e-02
-2.468924292388586031e-02,-2.198778462863001590e-02,-2.514562074051632581e-02
-1.888791257080143018e-02,-8.851072433374086723e-02,9.746072420316647528e-03
2.040839963707298445e-03,-6.766230803708532526e-02,-4.116996020324109606e-02
-3.470129708627124610e-02,3.634794567451590710e-03,-2.890554836134979697e-02
-3.732642939983558950e-02,-8.350241704083408156e-02,3.142419214320647195e-03
2.327127779093872070e-02,-6.027990044137277598e-02,-3.654466043857308027e-02
-8.584943894710256665e-03,8.187309741722580136e-02,4.239158221246787372e-02
6.320658444717945634e-02,-3.650903229950967083e-02,1.263584830804899764e-02
2.927260836186778431e-02,1.947591022521941856e-02,5.845999074583488331e-02
-6.650381200034699222e-03,8.987113653384226630e-03,5.984913702243913752e-02
-3.638063522463996780e-02,-1.155456442642747300e-02,-2.790582303506930137e-02
6.705957623228461784e-02,-2.648775805052521609e-02,1.725627762208011354e-02
2.131979246634846045e-02,-2.301077457437352911e-02,-7.868632946864037234e-03
1.378502625416596142e-02,1.045401956195297390e-02,-6.006167215726554431e-03
1.675579707043711730e-02,-5.012402071523358593e-02,-2.015206377178830471e-02
-2.772088275819609496e-02,-2.052097177547969331e-02,5.682822595313446329e-02
-2.920308037182879537e-03,-4.961213485992834599e-02,4.904091830454643253e-02
8.990729157303328778e-02,-3.400017828231658573e-02,-6.673191245425873219e-02
2.275548815617398773e-02,5.035045288292100407e-03,-1.195225751048295364e-02
5.514021464511816711e-02,-3.630564603778618088e-02,2.299580689682541659e-02
6.158080825176250744e-02,-9.439561732646221948e-02,-2.607566136409577174e-03
-6.098048835885674229e-02,4.728899868028715175e-02,2.580101754876302708e-02
7.090859860118312041e-02,1.107497665005554716e-01,-1.321179521425673402e-02
3.573818697541142342e-02,2.456972121863652478e-02,-1.860169206551605739e-02
7.712883812643638037e-02,7.049190195971456394e-03,3.926393758658910937e-02
7.029776233978471400e-02,-6.469566619842155586e-02,-6.756121133134265766e-02
7.153032988020334437e-02,-1.578950560759136146e-02,1.378442066958660873e-02
5.771768486712971352e-02,2.932689853363022736e-02,-1.890893773684107493e-02
8.039664443153676787e-02,-2.738068869132282562e-02,-1.544217236033579299e-01
-3.204636840211614462e-02,5.494830539584449891e-02,-4.056542607578008525e-02
8.067994137312776981e-02,2.220110960342367920e-02,-3.618341734603282289e-02
1.587519507747224209e-02,1.553177784815168785e-02,1.800642043793494046e-02
3.178218780766395996e-02,3.886320816488025853e-02,-2.286687546329700324e-02
2.785799736495023909e-02,-1.139019257736477442e-02,6.928014570002090367e-02
6.047890817706118999e-02,-1.178323390340252526e-02,4.979553511614282640e-02
-1.460826260700438806e-02,6.182123157475053539e-05,-4.016902058578344925e-02
-2.921756884703467783e-02,-1.712700998946625015e-03,2.131644056121512892e-02
1.996545150131947416e-03,7.517360852153084916e-03,-2.907330469981501617e-02
-3.670891177073574464e-04,4.516402128189074029e-03,-8.199601305806901441e-03
1.467723619900180958e-02,3.591781994304822645e-02,-5.567832513452993654e-02
5.420294728096714844e-03,-7.394020228046113696e-02,-8.160412834109585789e-03
-1.334471475579325321e-02,5.810766771813719728e-02,1.770330856445290549e-02
-2.887801402044816793e-02,6.012883716795348887e-02,7.456097213590061334e-02
1.494076376198088738e-03,6.309297239838076998e-02,-3.145988001382578336e-02
7.237428485709462844e-02,-2.058064759083627626e-02,-1.415593159911931326e-02
8.392816766882973956e-02,-5.400911173889922506e-02,-2.823183544818257118e-02
3.392981369201295005e-02,7.110720317995551654e-02,-4.295220091966799741e-02
7.885220096452005833e-02,8.877628345313720581e-02,-5.679224900360745759e-02
-4.445871306571248099e-02,-1.503566335199523277e-02,6.464715762889183814e-02
1.314594725353503656e-02,-8.296251020693627687e-02,-1.031413219060051817e-02
-7.357850562915024817e-02,-1.514789858602965181e-02,3.587525862553228324e-03
2.276137166731209693e-02,-6.625269758911991880e-02,3.622514256399780863e-02
2.906359288541180211e-02,-1.569880780520592142e-02,-1.698600534966586764e-02
3.364736919335974824e-02,6.842788116411231691e-02,-4.689366366098179223e-02
1.692292935819282931e-02,-4.638735687959161247e-02,5.295871305926663081e-02
1.257269659448592182e-03,2.435454655612420694e-02,-6.694873624489111608e-02
-4.295390342137425654e-02,1.078876439776253748e-01,-8.739377020316964340e-02
-5.558761333266595481e-03,4.484627111138788508e-02,2.528774387605108379e-02
-1.611106039462168946e-02,-3.498178696075716215e-02,1.585503615270767233e-02
2.161978074873448230e-02,2.618420268331795794e-02,-6.287795793920020193e-02
7.153365600763651744e-02,-1.050743809899077341e-01,5.996133155057779829e-03
-3.914055828588676456e-02,-7.737944842474535345e-02,5.308735032662175585e-02
-5.321371228870218351e-02,-4.510438683128514814e-02,-4.243830468417246482e-02
1.641639074855123087e-02,7.574236208233097681e-04,-1.496424568021359133e-02
8.126244534561623614e-03,-4.904664876941751406e-02,-4.353162439799971445e-02
8.891885896813446488e-02,7.091624587552335058e-04,-1.729811521297491871e-03
-5.825111414202719870e-03,4.046981389965010473e-02,-3.742785228599442710e-02
5.385748832765212962e-02,-1.483537937974859985e-02,-3.881811575793472913e-02
-4.453722832179397156e-02,-4.912540299356321638e-02,-1.017425500323500091e-02
-2.290757612071840296e-02,-8.172985519752802228e-03,-1.008064333917405020e-01
3.590879113584388022e-02,3.812485531963592800e-02,1.669117408095257757e-02
1.014066805367271062e-01,-1.862816520586932714e-02,9.118348080964637503e-02
-8.812176407696782621e-02,8.930058675558072423e-03,6.549166147259617710e-02
-3.161072857808442348e-03,-4.104146255779848179e-02,3.431614858816136454e-02
8.120966717380901506e-03,-1.319990401193049494e-02,2.423721585001680640e-02
-3.129082640014147626e-02,5.692441742331826558e-03,-6.975374430709750662e-02
2.570524547333882803e-02,-3.430723585195250697e-02,-2.737748502837845498e-03
-5.340106555008718170e-02,4.873080865321892385e-03,-3.729156231263835997e-02
-7.848218860818019504e-02,-1.128387941146141889e-02,-2.881240019442817685e-02
-8.455281496685174147e-03,-3.564754716506178533e-02,2.304870950293254339e-02
2.799456667103203053e-02,-5.085641476004841566e-02,-3.353829999888036095e-02
-5.339108804899621308e-02,4.391301830671254236e-02,-3.367812260668076596e-02
5.380855286213914734e-02,5.388772888575678321e-03,-3.851262589941552295e-02
-1.605663441622645626e-02,-4.507685526957565247e-02,-2.688719776864900018e-02
-8.406355094490652879e-02,-1.065879775436377221e-02,-1.400208818246385760e-02
-6.628217955781094510e-03,-2.460201626063842489e-02,2.061157867689614870e-02
3.574051626783963237e-02,4.487777867888292221e-02,4.609445480981922555e-02
-2.272687326561404625e-02,7.802553648872563585e-03,3.975090778795106056e-02
-4.872785971072563643e-03,4.204899119577049094e-02,-5.837202776442582119e-02
5.742831949825150800e-02,-1.823038031616325272e-02,2.577701265351999547e-04
5.427326503193360269e-02,-2.881659839767354223e-02,-4.947088691654853709e-02
-2.325888394306863116e-02,-5.268097819699266160e-02,-6.674511912463898522e-02
6.075499566950334079e-02,-4.758801177095949714e-02,-3.513512150707768372e-02
1.382522208691404006e-02,-3.197552570726256566e-02,-3.147158398113860528e-02
3.090885951040504842e-02,-3.397356590091400036e-02,-2.235214269049351499e-02
-8.267161580409047861e-02,-2.418903580139530538e-02,4.352221197057412790e-03
-6.464422060665703240e-02,5.059613681760501483e-03,-9.877888770969660975e-03
-1.752193107168691436e-02,1.909944146203237936e-02,-8.235004311161708834e-02
2.645057544362107438e-02,4.191819837197618688e-04,-6.023643290164645142e-02
5.760789613658900965e-02,3.073198546287298979e-02,-5.263882211500145458e-02
-3.100190204394770790e-02,-1.793172151393923261e-02,-4.900492524445736880e-02
-2.936175060247657627e-03,6.273210893957380241e-02,-1.276163578280157043e-02
1.303338175669907506e-01,3.271437391425670391e-03,-9.968828416993631356e-04
-3.109623068199343990e-02,-6.909247579610847123e-02,7.365064084327315255e-03
6.674340364311430462e-02,7.829138462350834771e-02,2.883480054751025659e-02
-1.118659456513967920e-02,-3.519144114543890783e-02,6.935924869018039729e-02
4.658212093064015985e-02,-6.855736952001592610e-02,6.434036113706288751e-02
7.682615544383454564e-02,5.882302628866706989e-02,5.230152121617076544e-02
3.159603315310016702e-02,-7.413576167033315845e-03,8.674630287196563594e-02
4.761566957501934400e-02,-1.434422243126374022e-02,2.258403414493415258e-03
-5.724651063038798532e-02,-3.581528273916510102e-02,4.126682527513026756e-03
2.544015336355988366e-03,-7.745263681719022006e-03,-8.110930821262392343e-02
4.963955211069507288e-03,-5.456283807745428843e-02,-1.271246063746697408e-01
2.422895683707964112e-02,-1.153973079889696746e-01,7.885809392408300866e-02
-4.191194833323531183e-02,9.540209622074628804e-04,-2.764228338704429605e-02
3.423772836791510316e-02,5.692908772723017513e-02,-5.647768532494108068e-02
-6.925535609063411709e-03,3.972189515033838075e-02,1.473818331743815798e-03
3.503392650143168779e-02,3.308597167815987422e-02,-3.038383838320833988e-02
-7.594320243381642854e-03,4.259027512632762580e-02,4.776404008115762989e-02
5.359867666950576814e-02,-3.504458730470384753e-02,-1.588186403064759805e-02
3.312085999075771447e-02,-1.371136677446948247e-02,4.581845143141807623e-03
-8.865601805183965373e-03,1.887814730908862412e-02,-6.044786345357020668e-02
1.218888395612644469e-02,-9.015882000808376822e-04,-4.118390811984734556e-02
5.043192426815025498e-02,-7.204984371356706885e-02,1.169293029710598286e-02
-5.830382787586159757e-03,-4.304970699443754628e-02,3.938571417004779751e-02
2.045914956638903923e-02,-6.087911156550395581e-02,-3.635965240003134671e-03
1.914675822230964969e-02,-3.515142241982849997e-02,-2.706614708506631037e-02
-7.009059453382530079e-03,-2.869153388982534358e-02,-6.277167667487174030e-02
-7.148312386979466249e-02,-1.420968368229922132e-02,5.683644151881372952e-02
2.692896038444427334e-02,2.815192150726466072e-02,4.708230247922442352e-02
-3.409259470759429256e-02,9.213821532315467910e-02,-1.377601355868332718e-02
-5.765271195038725732e-02,-2.918334243924324001e-02,2.568948084260974651e-02
2.033193860463377786e-02,-6.631448485545723970e-02,-1.192651330198388204e-02
-1.788990353581631013e-02,3.532478206436557439e-02,4.305617759587694604e-02
1.029176533334327966e-02,-5.272213549443425379e-02,2.364605603472362191e-02
-9.953468291057089926e-03,-5.985080474056182070e-02,-5.471574886281292682e-02
7.385490422497503760e-02,4.344667982813470164e-02,-4.230039941303812695e-02
5.967698677297077203e-02,4.127454870607243781e-02,5.081340216767900320e-02
-6.010643816801751471e-02,-7.909015760524053251e-02,2.295472541732498234e-02
2.771394069850771982e-02,-2.272045623584401097e-02,-1.921212478402340232e-02
5.604470961432721221e-02,1.796188926653856290e-03,4.192246940488674085e-03
-9.091089900924489986e-02,-3.598371342649984289e-02,1.020691848450938632e-02
6.432052908011297310e-02,1.493193176858168859e-02,-4.300775030185241543e-02
-6.378859451854168409e-03,1.378885843801453716e-02,-7.488561293875770075e-02
-2.184955657972672757e-02,1.343479279476529793e-02,-5.315113560194048570e-02
4.214975300262571722e-02,1.797853427852186270e-02,3.411152300775360802e-02
-5.444277854382347653e-02,-8.110966986451118022e-02,-1.523325322786041845e-02
-7.799606272457047969e-03,-9.798253385291149503e-03,-5.304754325654612718e-02
-1.062868571150513489e-02,-3.754773625971709241e-03,2.832800810174637349e-02
-7.173148237357595235e-03,2.178438863735589204e-02,-2.304553739363399828e-02
-1.797658992779665316e-02,-2.109103717280078061e-02,6.683467213357614789e-02
-4.392943433584506341e-02,4.233012689041665971e-02,-7.641635016820000348e-02
-1.071939520664006856e-01,-4.752501799060650234e-02,-6.825734801280668174e-02
-8.446803339869034949e-03,-2.856710107743423710e-02,-3.310736853784965184e-02
8.121286623506389357e-02,-4.803554403435553177e-02,2.737154854829851758e-03
-5.655260513022670327e-02,5.246400620447933677e-02,3.565131139244320096e-02
-2.010320903166681883e-02,5.510269330998378810e-03,-1.585288047522728089e-02
5.546610965237275259e-02,9.717557978262389429e-02,6.255429667381393923e-04
-2.583237337292035307e-02,1.542572824851765750e-02,-3.245173689611687007e-02
2.890012023746721739e-02,-1.961025220479372180e-02,5.787657703664209757e-02
-7.408241912767539808e-03,5.705178097444250224e-02,1.137959831312331492e-02
-1.228119361469586224e-01,-1.548051051379134048e-02,4.247035017467142709e-02
2.187939855203352782e-02,-5.105257618834931066e-02,-3.898403371797273115e-02
5.003821103389577418e-02,-3.364864706397436428e-02,-2.120657387279725747e-02
6.017203093164005638e-03,4.312066836620274957e-02,-2.330076748781540960e-02
-1.037335117312176459e-02,-3.576656843921485751e-02,4.763278031892836245e-02
4.971618705447730657e-02,6.718742169859971691e-02,-5.250717893508757145e-02
-4.732042087279122317e-02,-2.459682110736451446e-02,1.397513650839530240e-02
-3.322677159028265825e-02,-6.250584421957419701e-02,-5.067508147365146209e-02
-5.451696615841035952e-03,-1.530851299522547303e-02,-1.014396652339164852e-02
5.201746595288779529e-02,-7.144984043666666174e-02,2.409134251461354445e-02
5.733292243659150744e-02,6.513721158136290268e-02,-6.641504538257214652e-02
5.732942380968330219e-03,-1.040166428190409179e-02,-3.241473744571783666e-02
1.705947554617163672e-02,3.909386616197371017e-02,-9.027072814804340539e-02
8.090634084451646391e-03,-5.120870458278743015e-02,-1.657485103701320656e-02
-1.025432076912045042e-02,5.663817310376294267e-02,-2.353364071384018291e-02
-3.084691088068444373e-02,4.087272131637793848e-03,-5.558475786764787221e-03
2.635815362468179462e-02,-2.912418629105176932e-02,3.506306034858570897e-02
-1.835307583548835553e-02,-1.077435363807499949e-02,-4.876628229063418446e-02
1.162777627220782095e-01,-7.632765914399017131e-03,4.500864833115207631e-02
-3.055738090135722354e-02,-2.161926041454654071e-02,1.553970140380719553e-02
6.104998113085525341e-02,-5.801259890689232368e-02,-3.542113345877449804e-02
4.126343215813584736e-02,-2.998604612888791654e-02,2.085506186495043792e-03
1.048481797166267611e-02,7.936360884922617764e-02,-5.350788904642427707e-02
-5.655892277818406338e-03,1.099067092236988286e-02,6.774962067070647298e-02
-2.057631872983734997e-02,4.708280532577695243e-02,4.613228883068989927e-02
1.638508354752073529e-02,-2.240449445262996525e-02,-5.746058716313917104e-03
3.602541645527093488e-03,-2.480482395346946325e-02,1.016613674824470015e-01
-3.772753369968867565e-02,-7.994982953394283443e-02,5.480827799842841880e-02
-1.210745750040593746e-02,7.191529726187641247e-02,1.186376142480634333e-02
-1.498045905159525390e-02,-5.578554930746727064e-02,1.267097488631849407e-02
9.069404975177950204e-03,5.831072769600558620e-02,-6.569928199254791712e-02
3.895854108947026384e-02,1.876385066422838269e-02,1.055594773420205981e-02
-4.417799292352928009e-02,5.201066109085034257e-03,-4.045153830937488204e-02
4.190996615776927670e-02,4.857643822183493193e-02,-5.632372995460188658e-02
-3.222525417909526818e-02,4.163712102275639315e-03,-7.158892599342121799e-02
-6.311453759577380362e-02,-1.361176971623126973e-02,-1.000630337149131799e-01
-5.481138433258281664e-03,3.840476502456133950e-02,-4.971896953939739655e-03
-1.338063727759245501e-02,2.170601267659470843e-03,-1.001823732259431513e-02
3.908793135093677901e-02,3.925728702724395891e-02,-1.471659034964349112e-02
-4.041142559374864829e-02,8.862366143840975929e-02,-3.236393870682081203e-02
1.185510117014354839e-02,6.203861358958615013e-02,2.144401829048166869e-02
8.649267176728233156e-03,-7.144352614105914422e-04,-8.532181716159447510e-03
4.391772884912101445e-03,-3.512473771373574027e-02,-5.351922752192254940e-03
4.170810939198210665e-02,-2.093909447124717160e-02,4.735774994018911860e-02
2.158959945119323307e-02,7.065637102742576559e-02,-4.007525716133603783e-02
8.856059555112852366e-02,1.859093880331208828e-02,-3.101115213064701420e-02
-5.177140026142128260e-02,2.647844120969312931e-02,7.493932803015061588e-03
1.684723166299311251e-02,-3.276000023800547389e-02,6.513149595003035752e-02
-5.163748689789849494e-02,1.308699764470021981e-02,-1.849540970644147908e-02
5.824440169069616813e-02,-4.039180623248198737e-02,-3.370618002830724769e-02
-1.979649481351813262e-02,-1.972180636952745869e-02,1.375681929418186983e-02
4.112514446172581273e-02,4.640852559788889026e-02,-2.000412647847789674e-02
7.054619515624450943e-02,3.414647561762632066e-02,-3.470843844155097058e-02
-2.363786235191646726e-02,1.491749365661742405e-02,2.937442812693999775e-02
3.670691548936974580e-02,-6.162029744663233277e-02,2.622058489655995032e-03
4.858367127266424029e-02,3.168343367444597432e-03,-5.390566633782516333e-03
7.440885724379817795e-03,-2.693364111516976384e-02,2.807861872890569238e-02
2.993766204269055278e-02,4.809016886242685300e-03,2.405395657231527637e-02
3.369336409746336025e-02,2.767928954832499580e-02,-3.007435592239024024e-03
-9.740529550512895540e-02,1.083716408829502043e-02,5.223399633497748801e-02
4.613283384379236046e-02,3.617084986731997770e-02,-1.228519768054665319e-02
-6.260920647574648445e-02,4.607334232573197935e-02,6.594024254392226447e-02
-2.118244310579668957e-02,-3.019159907626532344e-02,-1.795710590767762155e-02
-3.702902580349687334e-02,-1.518010511691833021e-02,6.199535103401372649e-02
2.102505940898206915e-02,-2.670052081761169899e-02,-2.445356348434608168e-02
-1.501630414490703024e-02,-2.397909228970322715e-02,-1.004972130581121004e-01
4.595814647730742802e-02,2.199747508065745191e-02,-9.362359948722029368e-02
4.044471967636869419e-02,6.462832772918773727e-02,-6.985604510103755535e-03
3.072610665578480796e-02,-1.461331837774308695e-02,4.472661408555973772e-02
-8.015628470010582873e-03,2.391340379596894675e-02,4.634371185564837778e-03
3.143305600309158170e-03,6.618635375166170148e-03,2.566203148744948515e-04
9.064521309648177622e-03,-5.387468603470305789e-02,-3.078161692965748417e-02
2.470429535654473582e-02,-1.010930997612509014e-01,-5.692459275997891616e-02
-7.368889330588942500e-03,-1.013929174726346388e-01,-1.308501874316619906e-02
-5.720161352119121356e-02,3.214001902789765525e-02,-9.325265812667569640e-03
-1.127653565791539129e-02,-5.007159571281630250e-02,-4.804118566526605072e-02
5.221964566728955204e-02,-6.638832512894436710e-02,1.980470714168112035e-03
1.550954502443883769e-02,4.506602322526995219e-02,-3.736638053233519614e-03
3.629418558026393377e-02,-4.481962160814674523e-02,6.867777429298409231e-02
-1.139765456305109198e-02,1.354484353440826294e-01,4.223831613393870532e-02
-1.063533459313692128e-02,-3.622687117896208897e-02,1.216368028708339488e-02
2.403450634046806061e-02,-8.137691491699731994e-02,-5.267669659757768380e-03
-3.025306395830964709e-02,-1.987203341393107420e-02,-3.391240491164835419e-02
-1.044694701119385470e-02,3.711069494622598608e-02,2.758398426579620338e-02
-1.868272716704218574e-03,3.067706480210629152e-02,-5.008795023776112937e-02
3.639923402744436182e-02,-2.064621175702572448e-02,7.810523981639229396e-02
-1.019541058117833790e-03,-8.125372664953200638e-03,6.818197800146206036e-03
-3.684873326685034894e-02,-5.257312090731777049e-02,6.489533588916195084e-02
-1.266003874842364443e-02,2.981255522158229518e-02,-3.872368775157170040e-02
3.156790541689455387e-02,-3.967526908493831939e-02,-9.559871979618118562e-03
-5.570835647791955170e-02,1.313305766266846010e-02,-6.523345432637446539e-02
-2.849614909213851396e-02,3.054901515710757229e-02,-2.612096855264995146e-02
2.440237786205391377e-02,-8.587964717050445076e-03,3.903799593195717010e-02
-1.657017999805067421e-02,-3.328200218258510479e-02,5.730128372694773958e-02
8.583046522357702657e-03,8.351955495311598476e-03,-9.248359165562733061e-03
-6.151065252231865260e-02,-1.023183878771624089e-01,-5.781379278301088803e-02
1.217999269142552680e-02,1.519255048336367112e-02,-9.076539652768585717e-04
2.875724600180317846e-03,-4.660105732784997068e-02,-8.423763163460437631e-02
6.722414441191684742e-02,-1.399365712010080740e-02,-1.686633023515033553e-02
6.278717634898295374e-02,-1.766429177406464435e-02,-5.861350302561074699e-02
-1.640543590066158297e-02,1.382558405306970849e-02,-5.031402859950211137e-02
7.743604093039068922e-03,3.606167829700368272e-03,-3.834631727202616330e-02
4.151183125884388980e-02,-2.435894552933999188e-02,6.526925464654410869e-02
-2.010973145054656061e-02,7.241949834234684413e-02,-5.344263506729665658e-02
1.943190817593935457e-02,8.574736139463979764e-03,-9.148701879626032138e-03
7.068435491990886221e-02,2.283387022482429984e-03,1.159978440869948758e-02
-8.624433932373348766e-02,7.053137697650400245e-03,6.831912456837233721e-03
4.735540600822237683e-02,4.591981103002305657e-03,-1.785411600285258943e-02
2.769666222066830691e-02,9.414263726736127325e-02,9.164589982627778519e-03
-4.928521447602451228e-02,-6.689716457224605117e-02,3.863933141071587696e-02
3.403129867962440686e-02,-1.249868719028344663e-02,-5.707888137453689947e-02
-3.610092555140580195e-02,4.960365943166896580e-02,7.218391627805668953e-02
4.141577036604265211e-02,5.391120793526519434e-02,-1.951122368589238917e-02
3.350171883130341477e-02,-9.668797663004810583e-03,9.049718619364106658e-04
1.652362321434176469e-03,-1.452158637060098692e-02,-6.904792842847458367e-03
3.531585623754279063e-02,4.813405439598245072e-02,-3.409958154901455291e-02
-6.986969614243299098e-02,-2.288348244167999826e-02,-2.129972360528540470e-02
-4.388611169022650638e-02,-4.519626369769485369e-02,-1.843376483744394237e-02
6.889296430246404958e-03,8.435766059992595017e-03,7.753997888021577078e-02
1.353697424549108082e-02,1.670992267974541826e-02,-1.809176552748805941e-02
-7.417290547150601210e-02,1.059248886932909195e-01,4.825787668661665059e-02
1.011833895599039204e-02,7.141292575415669752e-02,2.650201312439600526e-02
4.909135523602453643e-02,1.159080393164456900e-02,-1.913482525951910526e-02
-4.349870549351494975e-02,1.570992177187931216e-02,6.753262087841905952e-03
5.530353593723035671e-02,-5.250855221406962314e-02,-1.555360270073940544e-02
1.719445499804930083e-02,-1.517216525862665789e-02,1.127824318628567642e-02
1.427183007507499407e-02,2.046446528484416674e-02,-1.602371827625904271e-02
-2.208752356563123409e-02,1.380210225159085313e-01,2.974478080570567423e-02
-2.609786363669444262e-02,1.537878436180810555e-02,1.627407572926637108e-03
1.702183220866876345e-02,-4.354498533654958120e-02,4.022462305572754165e-02
-8.222427999652904759e-03,2.790736454437990621e-02,4.345073391719345146e-02
-1.765885254470531129e-02,-1.249969892884471735e-03,-2.894954920054194566e-02
4.471173597469403974e-03,-2.099916410753477000e-02,4.215259230281839797e-02
-7.155384283854998410e-03,5.756087693357598428e-02,4.366204361594566014e-02
7.144912024999695681e-03,-1.139131929833583738e-02,-1.884680305795278024e-02
1.904653211687476824e-02,-1.077086626736350056e-01,-6.930358080087365737e-03
-8.544300525125834642e-03,-6.465982857449471995e-03,-2.783262606263802244e-02
-2.962415615639159630e-02,-2.910797211940139781e-02,7.834303211333396022e-03
2.490587859130308571e-02,-1.093519247862840271e-01,-7.653047090556196197e-02
8.329077869367755571e-02,3.847536976527397151e-02,5.631565888384184454e-02
-6.074432434033466555e-02,-9.692447618767495443e-03,5.373803228751108246e-02
-2.952957326247548919e-02,-2.997711829027487410e-03,9.466226942371187489e-03
2.056205774854440865e-02,2.062434189104643545e-02,8.304056353039168670e-02
5.880929242300523413e-02,-4.836128228282240982e-02,-2.962162293667216367e-02
6.669413068223759011e-02,1.616761453460448250e-02,5.654015938514304201e-02
2.793473573547635043e-03,1.569055595679665419e-02,3.554872278898512077e-03
-2.825801513986204994e-02,1.876643044436109020e-02,-3.922982860879659778e-02
-2.143979324023346199e-03,2.556608791561081756e-02,4.896170581094282798e-02
-5.612824578602192832e-02,3.936559490232817426e-02,6.423266654077622317e-02
-2.419917927878435099e-02,-5.395594793109401849e-02,-2.070404353606098216e-02
-4.652733686625708243e-02,1.528049117685625034e-02,1.589207012770358154e-02
-3.890181789926659001e-02,-1.810893109023897080e-02,7.671105420210319603e-02
1.578352713417417383e-02,6.630442143526664445e-02,3.051941765413045474e-02
1.404610383062772361e-02,1.380384742486162261e-02,1.994658605644139895e-02
7.726919375985130678e-02,5.066863807683705083e-03,5.678950016379784999e-02
6.494792387396418343e-02,-2.533943366830056568e-02,-1.014094170858746181e-02
-3.777102597545382162e-02,-8.276636414104837636e-03,1.206896445116328355e-02
-8.880272248872908211e-03,-8.867670964666727815e-03,7.162946982548047681e-02
1.847744245218686104e-02,-7.957375373448014044e-02,-1.083236927689623652e-02
-1.994713862833808263e-02,5.032783733847401297e-02,-7.101768504798988690e-03
-2.644023419236393550e-03,-5.793917695160410129e-03,3.642147331802898097e-02
1.914432614900893337e-02,4.386760774484096265e-02,1.343718864434389343e-03
-3.915293176047627416e-02,-3.436145545101255278e-02,8.392552221814258322e-05
-6.872066384194321781e-03,-4.175481895310110408e-02,-5.047166491236926983e-02
-2.188190483201395142e-02,2.976923451288212424e-02,-6.943478802156460850e-02
-1.987690562506674776e-03,5.161647939759652151e-03,-4.196563814893022881e-02
-5.548200563130758350e-02,-3.511280260856106811e-02,-5.457191697930054153e-02
2.646719013112116062e-03,-4.644773300976703240e-02,5.499460788845605269e-02
-2.891203096268585293e-03,-7.186926516127718767e-02,-7.046379248744383261e-02
4.002154760042951620e-02,-3.960035773837457251e-02,-1.366378857840007920e-02
1.651190628990488810e-02,1.969171843712077749e-02,-5.094548525079762441e-02
-1.828032551943098785e-02,1.447126151714277394e-02,-4.721248037232058520e-02
-4.152234831089363087e-02,-8.190222334180903910e-03,2.680592139802972888e-03
4.519510560626777140e-02,2.376628142180038997e-02,1.873376369864525326e-02
5.246269519581821597e-03,3.866582315515909585e-02,-1.013213223143006603e-01
-2.249136882617495947e-02,-4.666200387191345514e-03,8.225979232109323358e-02
-7.911831964238291021e-03,-2.309245611829698151e-03,-2.481763708522800437e-03
-1.449092632970397148e-03,3.670567104449664469e-02,-3.573519379279339880e-02
5.170753722719545475e-02,-2.147703849275361954e-02,8.501643208011601394e-02
1.546652677168625263e-02,-2.190034669036347581e-02,2.537266603609564936e-02
-3.084078800151751273e-02,2.007543327660394478e-02,-3.063113196548158251e-02
2.038857189225670372e-02,3.333842936654603933e-02,-2.603836631194701018e-02
3.876165222183423215e-02,4.327041021253470732e-02,-3.528542926226267001e-02
-6.727034456294378462e-02,-5.036601565676297743e-02,9.382066390862503491e-03
3.584750807415831159e-02,-4.305084150281882766e-02,-7.669401808569753509e-02
1.527815887351303969e-02,-8.279195969538393624e-03,-2.689709451634087270e-02
1.771712449537781245e-02,3.493314070493586110e-02,-3.590127611248658708e-03
-2.894689790956423564e-02,-6.089648968917132921e-02,-6.018289485055718785e-02
-1.213571520744504730e-02,-9.252601023494750471e-03,-4.302734421937839948e-02
2.809634084387475569e-02,-3.627812788106977472e-03,-5.939321279411570453e-02
3.364626021365105940e-02,-1.113993171641007064e-02,-2.057885491032640859e-02
-1.809741954703520880e-02,-1.866380118775490607e-02,-6.384321900886610890e-02
-9.179334238843607496e-02,-6.611709869689115504e-02,-1.786481811382653953e-02
2.793654871264748124e-02,-2.693104119388695095e-02,5.377641484650193954e-03
-1.400611364749637308e-02,4.402252125353317558e-02,-2.870621460983718842e-02
-3.903937944984960107e-02,-1.419681403163202543e-02,-2.987231092704326074e-02
1.107684479697098288e-02,-2.600829106258715356e-02,2.435163451923787886e-02
-1.615338389236189304e-02,-3.880428824602046717e-02,-2.115362334473205874e-02
2.030460589078164624e-02,-4.261318743094853756e-02,-1.175856482508635531e-01
5.775423182689175955e-02,-4.579445693675450457e-02,1.316752879755945550e-02
-3.415572021044370465e-02,-4.685754786423713784e-03,1.359094798114405655e-03
-1.761090496951352169e-02,-3.489974514343648082e-02,2.997337134202886222e-02
6.345790267293881237e-02,-3.624905025740392250e-02,-4.239533629354907789e-03
4.774852635594255615e-03,-3.264082594458457554e-02,2.253592310790844197e-02
-1.426446184337014714e-02,-3.593649737935510069e-02,-3.054390947533680133e-03
-6.793733937450609217e-02,4.036290783061864673e-02,-4.021300496402748122e-03
4.000372499375211277e-02,3.000128171972639424e-02,-2.714669027786907954e-02
2.309510548326822177e-02,3.044668432713505159e-03,-7.935951905571010656e-03
-5.331867689797475246e-02,-8.154760974869749643e-03,2.743529110888181383e-02
4.444694191145133477e-03,4.914716054164977588e-02,2.930428066098867204e-02
4.036093807205764356e-02,-4.995824249314035487e-02,-4.837714799512785740e-02
-2.161443328049909504e-02,-2.730952009467071950e-02,1.055951271648290779e-02
1.327292170091026215e-03,-3.440600870922428528e-02,-8.284050218014286926e-02
3.820809996021580501e-02,-2.579193174264531388e-02,-2.287190227663868716e-02
-2.241762049286586192e-02,1.797409160526479421e-02,3.441261314458541817e-03
1.263091911411752186e-02,3.702386523735962803e-02,2.952946753229268237e-02
-4.660783144149661938e-02,2.737308936516523114e-02,-1.462858010258686996e-02
3.273933047142557617e-02,3.569665854557622919e-02,3.068744014459040548e-02
6.928678571089853799e-02,-5.999865803058004703e-03,6.624504469178045529e-02
-8.669830027179988019e-02,1.893114662962546574e-02,7.627533463505695339e-03
-1.656957879646793821e-02,5.049567201375385062e-02,2.130148305064978251e-02
-6.870261421916881717e-02,4.895437211643103442e-02,-3.618845930698591853e-03
-7.305895461470613209e-03,4.908207969044693642e-02,-5.207168504513310509e-02
-1.626609042634801633e-02,5.425054768787889586e-02,-5.004233529775450884e-02
3.167611172392024305e-02,3.747205937890953249e-03,7.124660941665275637e-02
-5.700684272943134373e-02,-1.024512888245938669e-01,2.037638041326867225e-02
-1.708110720047012823e-02,-1.915036295128007271e-02,-1.556947888082746249e-02
3.725090644496915904e-02,-3.140482123139314019e-02,-2.137061889614528393e-02
2.418183049293606487e-02,-4.575101647620444072e-03,4.804217661830741115e-02
1.035353765245239366e-01,5.544627352712806767e-03,-7.713131317982909775e-03
9.268576848359138740e-03,-4.066168753996445701e-02,-2.643365129035878461e-02
8.085200161239132304e-05,-1.212293310166519256e-02,-7.483055935944177804e-03
-1.358018358646554020e-02,3.631456928321552535e-02,1.259684197064338956e-02
-6.992632402269179093e-02,-5.139698439744916358e-02,-4.961843570837539547e-02
5.954011342815868774e-02,-8.845039504177283629e-02,-7.754973069249887149e-03
2.174529074640331461e-02,1.303611878171428637e-02,-3.029869135480467782e-02
2.758398687193224647e-02,-5.329424385421535626e-02,2.193793257692073020e-02
3.310548236743394296e-02,-2.297229894600608113e-02,3.723935878801429289e-02
5.698088152547907057e-03,3.618213118407587886e-02,-2.903384467248508460e-02
3.463308251713383135e-02,-4.844211363938073084e-02,-6.635321694309759266e-02
8.691295686638544557e-03,-4.813177957636091686e-02,-2.114786339243917429e-02
3.506757123582760014e-03,1.208360021566370901e-02,1.440336877148564419e-02
-4.341899547072035348e-02,1.134301227839513461e-02,-3.512173303584616851e-02
1.816220136463798278e-03,-2.905416344511372109e-02,-1.786011811319024312e-02
-7.876685385444259779e-02,1.271129384689791836e-02,2.186067504351587101e-02
-7.769028134302441435e-03,3.014167244875673446e-02,2.801151836126689748e-02
2.568404474195569789e-02,3.325505542432890399e-02,-1.910044001715405920e-02
-9.320090995050184235e-02,-2.668138324778484075e-02,5.206376209785534837e-03
-8.167408499572148539e-03,-4.276480774705272020e-02,-3.957186310847887051e-02
-2.018430867757002242e-02,3.816099424006479113e-02,-5.225828983130870881e-02
-3.704539701252288625e-02,1.252038713040464803e-02,3.712855025048616281e-02
-1.197444308091788652e-02,-1.053339046944694497e-02,-9.902572611559924687e-02
1.953310019476078851e-02,-6.612310999736212280e-02,5.292149605366389120e-02
-1.246426685275517539e-02,-1.808059990889609829e-03,4.875440757895903310e-02
6.033045821519872343e-02,-8.356799949965454825e-06,-5.707988408813074316e-02
6.159027038157562778e-02,4.426478787201951377e-03,3.702252858163970067e-02
-1.359717801203250698e-01,1.079267025055612311e-01,-2.326249272908195373e-02
-2.406978050777400235e-02,-7.311346342141172416e-04,2.836882980118007186e-02
5.560072200621610228e-02,-1.344843348668333652e-03,-6.736637528491781768e-02
-4.490639930363261520e-03,-1.419810068167965018e-02,7.141977484302011736e-02
-5.998284031548561240e-02,-1.779419384633628212e-02,5.978365099777199765e-02
-3.091351446908292486e-02,5.091892746070623976e-02,5.969539608044012458e-02
-6.412115855441644953e-03,-6.449813436292852961e-03,-1.752027819788938567e-02
-4.638851718885277781e-02,1.142152513191572322e-02,7.765477783521570771e-04
5.474535396296244250e-02,2.173248285774435223e-04,-5.154669179380064192e-02
1.827121935042275158e-02,1.019925546298729342e-02,-2.810293927012101969e-02
6.755213331789363708e-03,-3.085638996679563022e-03,5.386809688366715754e-02
-4.950536157424421935e-02,4.828501486764194550e-02,1.465122255289926477e-02
4.079940174538664033e-02,-3.124209169726846133e-02,-5.020281706448434522e-02
3.886417537773783921e-03,-4.026882563816845673e-02,2.962898375075321764e-02
-6.020908176047597149e-02,-1.099816328728641865e-02,-1.521537744299658601e-02
2.459059503163946170e-02,2.621927227811177499e-02,9.745873652154617151e-02
7.846035867385334206e-02,1.590877443388300644e-02,1.194495002953966517e-02
-2.364314065056284664e-02,-1.077167801898215767e-02,3.708529056115749539e-03
2.671335410451463124e-02,-1.092591537297299686e-01,5.853883169746011694e-02
1.812732354564527970e-02,-6.732463266886264119e-02,-4.958295331941694334e-03
-8.975241611008079323e-03,2.890294808140067215e-02,5.566528305792165648e-02
7.883910783058607763e-02,-2.969953847720758697e-02,-4.834758392856695897e-02
1.544171134800291154e-02,2.352867882198775989e-02,-6.354836327748757813e-03
-3.738754640339397124e-04,-2.624822248369939812e-02,-9.303385251260506278e-03
6.461625412385378631e-02,4.274718988747117435e-03,2.202001945758599519e-02
3.485723684170820291e-02,-2.650149232364675325e-02,4.760658690800562663e-03
1.509224041254922551e-02,9.868808500398441180e-03,5.257528313263341163e-02
-6.832070273862503838e-03,2.946597978950128705e-02,-1.281668661494923984e-02
3.607074929292244242e-02,-8.926093534411433383e-02,-9.994708074299224476e-02
-3.326964850469158168e-03,4.442153284554110210e-02,1.656862955859178185e-02
-3.088256191709256790e-02,1.635100823108105381e-02,-6.151365828596932345e-02
-1.223717797101567077e-02,-5.444375480848245158e-02,4.075867497323104605e-02
-1.822436660670455344e-02,1.082372397473691100e-01,-2.016334238656924613e-02
1.713650324580434647e-02,-7.194825116773147754e-03,4.165871073949219822e-03
-3.690137946287155857e-02,4.036807722781643459e-03,-8.956833899033272983e-02
6.730084467532222725e-02,6.188885296128240204e-02,-1.501878067419388889e-02
-3.426869478310404227e-02,-3.641170110715044768e-03,-8.622988647043071733e-03
7.326663938401806186e-02,-4.616044514820680233e-02,1.976905743638532331e-02
-4.264073407623342887e-02,4.496352083577447728e-02,-6.644746299475720597e-02
-2.548080116841090759e-02,-2.726638780476270396e-02,-8.476686352426932025e-02
-1.530175289493997115e-02,-1.735202170869563215e-02,6.683741283197591754e-02
4.651400836456744819e-02,-3.712747230320563585e-02,1.376421991428020478e-02
-1.155822455649049450e-03,2.252564577753977601e-02,-1.632422552964251164e-02
-6.641436577504107597e-02,1.661761036517755280e-02,-2.355227481937988490e-02
8.732800113899579636e-03,7.801039651080219316e-03,1.624034410728724884e-02
-2.768466903593667233e-02,-5.855664318668019931e-03,3.186719570745064761e-02
-2.181812406623166722e-02,4.273154063360679739e-02,8.090345513799486465e-02
9.020021842351857999e-02,8.184509370075896545e-03,-5.078702585418187754e-02
4.682472859067479676e-02,-4.580800426261057851e-02,-5.649399223013682608e-02
3.111132454730747288e-02,-3.728606253754186001e-02,-5.293572562979843854e-02
-2.002399228489789088e-02,-3.410500444716249840e-03,5.952053465256012393e-02
1.756437271601045402e-02,1.693491151775328510e-02,1.105983478472531700e-02
2.274218481587726021e-02,-5.237664109922702399e-02,5.936761025538726116e-02
-8.077964925591660586e-03,-8.502847174989730181e-03,-6.615016076804684786e-02
-3.058882196601755629e-02,-4.870974167617067585e-02,-3.270822201680874397e-02
-2.428906815049430498e-02,-8.030595491397347907e-03,-4.002578418269220339e-02
8.518159110120470659e-04,5.704502146122901463e-02,-5.719061537547104335e-02
1.163600300625214704e-02,8.676648646494643236e-02,-1.576599865974542478e-02
4.229130098456408693e-02,-6.321486816785019947e-02,-3.218944181498634843e-02
2.692869638656918835e-02,4.667860392152051174e-02,3.913613680765657549e-02
-3.919363266967254567e-02,-3.017973533621455887e-02,1.399739458088113293e-02
3.907639874116156792e-02,-2.205110648804078227e-02,-2.005380182350043408e-02
1.516720691254707515e-02,-3.929296381773150076e-02,-2.863948495315022172e-02
-1.183865008319599788e-02,-2.021900895434647523e-03,8.391939163834429005e-02
-4.387323277802700899e-02,-7.406619460891557261e-02,1.431989523235540664e-02
6.689599891051127567e-02,4.180033105211007627e-02,-4.885056840321628374e-02
2.372309354652639077e-02,-3.120608396822938807e-02,4.735361054673506431e-02
-2.744431889755876222e-02,-1.060224150820148793e-02,2.605941642180772261e-02
-1.304721279712931815e-02,3.072637461596753813e-02,6.045048222136380385e-03
6.106035163637885815e-02,1.069908868200985554e-02,1.462599616383878504e-02
-1.493849596796331496e-02,-9.707035681940708038e-02,-9.035862162418141497e-02
3.281040422249289611e-03,-1.967396610963091999e-02,5.182240364901158358e-02
-6.961290261115013478e-02,3.075343966527575162e-02,-4.484662121878071200e-02
-2.622087233031577050e-02,3.940583221021380644e-02,5.017214168524596063e-02
1.015836375480458180e-02,-1.279598907234973278e-02,6.064656088827805047e-02
7.988174357190207242e-02,3.383048444583160869e-02,6.280927138026909384e-02
8.331112596969852567e-04,1.248052588871184643e-02,2.580358352947807743e-02
6.217546200964831071e-02,-2.157858610676116617e-02,-4.648836570108140498e-02
-4.958047122442589202e-03,1.740313382522249222e-02,-6.451516814342236894e-02
1.344291987392883013e-03,-4.485314821182078728e-03,-4.217652507288152663e-02
6.158840842112927455e-02,5.419463970382616680e-02,-5.084204472280701159e-02
-5.371214575545157216e-02,-7.540091630503670261e-02,-1.707708513500904093e-02
4.320363295521763985e-02,2.317935326364313833e-02,1.475855569683782141e-02
-6.019747635162745088e-03,2.438364826625867565e-02,4.438490990634994665e-02
-3.902647329821955918e-02,-5.411631762877167767e-02,6.548540312648840067e-02
-1.798335515742274099e-02,3.852315808750540055e-02,3.975903667835023469e-02
-3.191842915270032364e-03,3.531750091514455209e-02,7.994967576971587220e-03
-1.289179907249167478e-02,-1.774695809234913199e-02,-1.507266132774296059e-02
4.314356259674999305e-02,-4.961792078907825698e-02,-3.730361944917880840e-02
-3.722709201708412213e-02,-8.194101204284760798e-02,-7.475694245435571261e-02
2.832006423873597439e-02,-4.047659060172633522e-02,5.206283483028544684e-02
-2.906415502525695749e-02,-8.943634192594872995e-03,-7.056593938070290783e-02
6.911772255297332634e-02,1.754294122145225784e-03,-2.924701502621102067e-02
3.009230381230253507e-02,5.031249761104126389e-02,2.080981735630476129e-02
8.468293921730212989e-03,-5.073938070870901568e-02,-5.065390269295372283e-02
5.137408127332196428e-02,-9.575496032268719648e-02,-4.027938360862037305e-03
5.583946957501697422e-02,-3.233816447643120089e-03,2.487563210131095610e-03
7.431733794648211211e-02,-1.573933089906035324e-02,-1.530550656373183376e-02
1.233859719434357745e-02,-1.182482466405987941e-03,-2.426168444546282499e-02
-2.539260162573962754e-02,4.590271353064544202e-02,1.139046112537134975e-02
-3.944712543242692715e-02,-2.221778305722137484e-02,-5.931261949480739343e-02
6.496257858731575852e-02,4.380105683206710759e-02,2.855356122083145889e-02
3.740432422493746717e-02,-3.250422109733543119e-02,-1.506944436277821847e-02
-2.849167129598175266e-02,7.194693879114086484e-03,-7.153383529491433301e-02
9.039789346784538266e-04,-2.033482683775438005e-02,-1.354517469682132991e-01
3.426729850856589932e-02,7.354696349912265285e-02,-1.115108393572489774e-02
4.030291638421177464e-02,-3.910648195773521602e-02,-3.960254546030660128e-02
-8.049427172733512881e-02,2.416783043973863565e-02,2.341248085935597120e-02
7.512237244581163043e-02,8.202697112477752919e-03,-1.408458418423154390e-02
-6.469177578259549533e-02,-6.934725211275362400e-02,1.931426797597072392e-02
6.329284207147808797e-04,2.101247080645231996e-02,1.099362288942182676e-03
-2.928088842863569435e-03,6.340843191610422147e-02,-1.552620234713898532e-02
4.655944917771683011e-02,2.750943582556338030e-02,-4.804849084778205909e-02
2.865526735359135227e-02,-1.529528412923726079e-02,5.558925227921578116e-02
4.815875186551429182e-02,-3.231284133810507359e-02,-4.789628543379189501e-03
-2.696306518017757906e-02,-1.992827302261256095e-02,1.808465251587886014e-02
4.880727757693611307e-02,1.623868784692309927e-02,-1.398278472030028453e-02
7.568070013271423202e-02,2.993185160398540573e-02,-3.736241455549201701e-02
-5.105010204247933253e-02,-3.072891752273073512e-02,3.053384877794472485e-02
-5.034495186858106014e-02,6.994789042774439414e-02,-2.640421614774978581e-02
-2.022603011072409557e-02,-4.371224782686439908e-02,-3.964386230236920799e-02
2.780105574193490053e-02,-4.992737857791203215e-03,-9.215792040375823946e-02
-9.981750278913726487e-03,-4.505002774411276389e-02,9.738917045169274977e-02
-1.380466627060777766e-03,-1.061042342022091092e-03,1.105019448029719020e-02
-7.781039789949739660e-02,-3.083834767099504631e-02,1.001375773938475294e-02
-7.084099847960130883e-03,3.647384202573966672e-02,-4.080556125631495251e-02
8.567549158483787897e-02,-6.633131653495515090e-02,5.710292606011040800e-02
-6.548467865921504816e-02,-2.644352533045007600e-02,7.626578844207974883e-02
6.431225313632171758e-02,1.098105280791865021e-02,-1.158587728288351659e-02
7.728009832925693268e-02,-1.927926404083052728e-02,-4.895712806715578867e-03
-3.675576571629396438e-02,-2.402077750028768291e-02,4.224459810015946531e-02
5.792739171170199070e-02,-1.118646643041552695e-02,1.477049722108848308e-02
-2.845868900128848550e-02,-1.655047387020130295e-02,-2.175400673137547515e-03
-8.635884692827379416e-02,-3.527487969512251020e-02,-8.099715675642668589e-02
2.843412115736816854e-03,2.306301567962034185e-02,-1.201008970238502671e-02
4.215066195588310777e-02,2.220950869510580558e-02,5.576121015793716190e-02
2.182300335074056907e-02,1.174184050700495877e-02,-6.300734876812592866e-02
4.745593670905733780e-02,7.599187526554434038e-03,-1.037269105200690732e-02
5.685668677098830621e-03,1.421665159686625879e-01,1.188159281645337489e-01
7.267889278522289033e-03,-2.376641330585976472e-02,1.247938240481874517e-02
5.599962113850211892e-02,-2.487728817726490849e-02,6.578744980033880696e-02
-3.616023249520081140e-02,3.016430810821388656e-02,-5.348956936741628559e-02
-8.392406572050753813e-03,1.778779597643426191e-02,-1.956828605184578185e-02
-5.335038977510869057e-02,2.484758419524121797e-02,8.661708740576164189e-02
-9.216694522801365886e-04,-2.785678854101307153e-02,1.098282342022762793e-02
-3.711403855856848510e-02,-1.638169515482757604e-02,-7.327980109214476956e-02
-4.329168621683149309e-02,2.643639899981974507e-03,1.986848139187339171e-02
-9.717707190652384586e-02,-2.227432218469630257e-02,4.698783439281248200e-04
4.537694576011230135e-02,2.881337922748649499e-03,1.995302935811516312e-02
8.951353780202370158e-02,-4.240928201112149909e-02,-1.632363872519746947e-02
2.814732637778215307e-02,1.838990469939734765e-02,-4.568075559322289092e-02
-4.363753390054830178e-02,4.192262526608946105e-02,-4.952333409690239368e-04
-2.416301356426158939e-02,3.648762247446628304e-02,5.171442027563195876e-02
3.310547076294270696e-02,-5.714003823887409302e-03,-7.969698972360139341e-03
-2.037705006212720688e-02,3.025907118098972864e-02,2.457566409821824917e-03
-2.392956675392440835e-02,-1.355605070450579056e-02,-1.015841224117049052e-01
8.014656731636686515e-02,1.351374808958795762e-02,1.455589459186256915e-02
-8.484943566765745446e-03,-4.348469533461931519e-02,-7.956872867474115707e-02
7.514131955849873146e-02,2.952292720728638253e-03,-1.781150177190184841e-02
-5.309490350790484203e-02,-4.153128407806645772e-02,-1.396232248770281834e-02
-1.603200491137019013e-02,-7.016102800245892224e-02,1.999611582861105658e-02
9.190122882666934556e-02,3.306182915710944442e-02,-5.954861458058545443e-02
3.860514825760300028e-02,-1.008959902409266654e-02,5.128423966890479496e-02
-1.197304154915414809e-01,-2.107864664866084675e-02,3.435621232357750909e-02
-1.601491499544141842e-02,-2.756541685221138450e-03,-1.750230294081524945e-03
-3.969365139729046088e-02,9.833841341148586226e-03,-7.815913238387138529e-02
-3.475027109379987683e-02,-2.852331063131638769e-02,2.383521897705421014e-02
-9.402154731883813343e-03,2.318550896286015409e-03,-5.841742021305723273e-03
-4.230896633230142589e-02,-8.596239087607425444e-02,1.291243647289587460e-02
-4.237719082002553567e-02,-4.488011356996754464e-02,-1.951088210545054609e-03
8.002316732890767115e-02,6.218288170704508455e-02,-2.920203066534001260e-02
5.472447141671414259e-03,2.233011546344050927e-02,-6.774148652682990268e-02
2.525454311318743247e-02,1.333675339439513441e-02,1.106722866810358648e-02
9.343195694236515469e-02,9.527301577087145604e-03,5.934967478845600518e-03
-6.978633739753320464e-02,4.503952742720107594e-02,-2.916816527597922842e-02
2.141315208896827499e-02,2.568043149725215274e-02,-9.736447701650514236e-03
-1.915189236481903978e-02,3.670560605535842791e-02,3.710465689477144245e-03
8.910113318496937218e-02,-1.665021937924387064e-03,3.378741067324425584e-02
4.522268407511176140e-03,3.654475109769892566e-02,-4.828868224570403121e-03
-3.750300504483475988e-02,6.164974019482407502e-02,2.487061530993045499e-02
9.421009669718063972e-02,1.045475849856423826e-02,-2.008702706151959533e-02
-7.503696721807853742e-02,-2.212135700357523160e-02,-4.726497929193251152e-02
-1.237990506138023864e-03,-1.617382942355222522e-02,-6.192242946951570688e-03
7.555937961087241458e-03,4.273508321804044691e-02,6.781056690760642325e-02
3.341371051421777871e-02,3.776259624200700021e-02,-7.928084295286229669e-03
6.354691863211572866e-02,5.089254605328040471e-02,4.443402134054544317e-03
-2.521725303815538360e-02,6.081118777968329975e-02,-1.128562985570166939e-02
-7.040750110483388891e-02,-7.508442507508812647e-02,8.811775996308403303e-02
2.174185322774558476e-02,7.607450909896665281e-02,1.097662288602373332e-01
-6.298615570462674784e-02,-6.562966322508306805e-02,1.287461575732353619e-02
-6.142321141539615337e-02,3.418336421896089883e-02,-2.956210767086327879e-02
1.017787065598157320e-02,-4.560482595060611627e-02,7.340895935408355000e-02
-1.827172699674042833e-02,-2.403559080822492700e-02,4.602334301845791703e-02
-6.266773518721384384e-02,-4.769805708571418085e-02,3.776549105550990743e-02
1.492353768269398528e-02,-7.422820781991636141e-02,6.846424785709243066e-02
4.224356354714130929e-02,5.744012517112352667e-02,-6.066033621359190331e-02
-1.761134037254075482e-02,-8.235123326903479035e-02,1.695599270766389929e-02
-1.503533505537683022e-02,1.235505056022781489e-01,7.439431303028456316e-03
-3.305884668558790179e-02,-2.780145437219086121e-02,1.089134540221992943e-02
5.393688442499059571e-02,-5.813621481735336237e-03,-6.546379671959556834e-02
-5.190017842811300852e-02,-1.744945544462020784e-02,9.570685265875503167e-02
-2.679962275784014691e-02,-5.773056021301894297e-02,2.170957338096047781e-02
-1.118620588147835326e-01,2.497588999456053747e-03,-5.271657088392724469e-03
-3.081813459624555690e-02,-2.700906858559126711e-02,-6.335639251674322903e-02
-3.813607154628870233e-02,3.718965594201730646e-02,8.933382979056975204e-02
4.086707467542602390e-02,-1.020330913200730855e-02,-2.357141968188444662e-04
-1.140665041530822266e-02,-6.995520390961792317e-03,-4.373764876436209842e-02
-9.800615593403654707e-03,-3.339169879093438487e-02,6.065619621152117981e-03
2.400368622170893224e-02,3.181513320206114798e-02,2.713647088189636604e-03
5.527741921073269817e-03,4.479436971607062695e-02,5.845755158352574504e-02
2.655831641939787949e-02,3.917912433804233291e-02,6.147613558595779563e-03
-3.951830238748718638e-03,-5.578036020301175429e-03,6.564253703496490677e-02
2.684586043097595895e-02,6.600705302307517675e-02,-4.214613191899536059e-03
6.556747988851895081e-02,-8.027045231197718622e-02,4.825422165566292665e-02
1.550519362913023967e-02,-4.260927727306893821e-03,2.288782167593185479e-02
-3.980334513093757237e-04,3.616079244410453503e-02,2.151500920116221263e-03
-2.336998925660368001e-02,-3.530672634954368921e-02,-9.645600692942931167e-03
-4.049301082046397396e-03,-6.987197811802646485e-03,5.328883607210623680e-02
-2.243354717435251319e-02,-2.118041692118633260e-02,1.629070837929462445e-02
-1.369175790684116177e-02,-5.911054291312663016e-03,-2.228365963298451283e-02
-6.740840685056795345e-02,4.246833429077578187e-02,3.250105094393865995e-02
-3.576189754226478945e-02,-4.948188739292191246e-02,8.849540785014037639e-03
-4.156314340406188496e-02,-7.812420412490946042e-02,-3.521935356249012578e-02
-1.199055602458089361e-03,4.540098064040937187e-02,9.874017958444336607e-03
3.315317882286189510e-02,-1.263958492173623653e-02,3.286923651765564364e-02
-7.523896534085697252e-02,4.502949306191560835e-02,-4.760209452702395677e-02
6.625716140426647985e-03,4.585499931558209563e-02,5.687528609311408995e-02
-6.471282149779726545e-02,4.317303459255903558e-02,5.730695369207892270e-02
1.243776987252027608e-02,-7.218933614514272401e-02,3.404098038867273829e-02
4.788836679247704398e-02,-4.504209733742236578e-03,-6.039307505478598570e-02
5.100842967809544708e-03,1.460278248462303953e-02,1.999678228085942019e-03
4.668712514172772970e-02,-2.146253131158172914e-02,-3.459643906096572519e-02
5.844042746430856000e-02,4.800240017412454874e-02,3.052428781746912689e-03
2.380003019995629090e-02,-6.759964831069038838e-02,5.720042936297136532e-02
2.242467751753270122e-02,3.860571683684774907e-02,-2.220438217331442352e-02
4.003874229238659627e-02,2.458960495088948969e-02,5.161232576869186073e-03
-9.690190513191010088e-03,4.978894849711128223e-02,-3.404178394115876805e-02
-4.269468909677246078e-03,1.032946229958607298e-01,-4.097548071403559616e-02
6.346132456605015071e-02,-3.355601062833293152e-02,-4.993462198930267298e-02
-2.632572236237364083e-02,-4.002137198046629152e-02,-3.367341143933928055e-02
1.696013757216332726e-02,-9.348306094031994667e-03,1.021621496375053027e-02
-3.776034268097785973e-02,5.437679367159777705e-02,-3.545144749026261769e-04
-7.629053835823228213e-02,-1.051286391419777866e-01,-3.152388093036758571e-02
-7.159550646217258119e-02,2.924761682617588524e-02,2.028458665280625725e-02
-3.845696218617689760e-02,1.021683388455041537e-02,-3.373334975983714040e-02
5.983282419360031607e-02,3.482157438916644310e-02,7.230870093142751677e-03
2.777944960042238662e-02,-1.698499099235789914e-02,-3.037249063473425412e-03
-4.376522738645496902e-02,1.345912605215261043e-02,-3.563385177215032396e-02
3.924191743969682872e-02,1.451907587314470172e-02,2.309229259529895634e-02
-2.540863816406736461e-02,1.464365266897319981e-02,-2.167805532331512283e-02
-2.054452786166773015e-02,-1.041949785919799726e-02,1.210035117911947324e-02
2.139652080702577133e-03,-1.433991840670176959e-02,-7.785805627587394362e-02
-1.734570577238895087e-02,-4.133515456576716124e-02,-3.836509204642783027e-02
2.647076883020519147e-02,-2.316569570765482367e-02,-5.069840611711089184e-02
-1.974109521274099339e-03,-7.957180300119860716e-02,3.059636763941373655e-02
-2.131504987679260985e-02,-4.663216831839691462e-02,-2.795941522209246730e-02
2.253240120436682953e-02,-3.054773637512309126e-02,9.700582172764246613e-02
8.533378331235153338e-03,1.767996115294377668e-02,7.300735025633302289e-02
-3.476475058169065189e-03,2.839688664305097671e-02,-5.348392477277493645e-02
-4.440989627549733754e-02,-6.435590570535550808e-03,1.724045091322108647e-02
6.646354758869413293e-02,-1.412021945878594482e-02,1.814538676414891374e-02
-8.596447722028418073e-03,-4.152670410615651175e-02,-2.258942704002830232e-02
1.127112542510862875e-02,-7.784251696651925401e-02,2.116983413546549495e-02
-2.493881776771419197e-03,5.534100480585946169e-03,-2.122876815791389232e-02
8.243128815027450434e-04,-1.320634322208512346e-02,6.175328954397793502e-02
-4.491706519850838936e-02,-1.737650962074504049e-02,-7.710119823145220042e-02
1.223606723618829717e-01,-4.799752573775935977e-02,7.984039583995778452e-04
-4.894262074115521971e-02,1.917486589770704859e-03,4.188962697565637439e-02
-4.757294029637030436e-02,-2.839035274307178270e-03,-3.975447986678826151e-02
-5.257775455480340199e-02,-6.072442301121924041e-02,-3.333407429090060048e-02
-2.686955024245625458e-03,-2.279620639324765261e-02,7.456887457788849080e-03
-3.495177590888751129e-02,-4.770253291835264975e-02,7.810509746529378794e-02
5.302371061158030197e-02,-3.753795202983958856e-02,6.929760248931132738e-03
-7.840736891681128473e-02,-3.622493591334552399e-02,-4.593885853846556289e-02
9.605594656403256687e-03,-2.755395409645295529e-02,1.035612640902604520e-01
7.498763569860179834e-02,2.490448115084869032e-02,2.371689510854546948e-02
1.101594278760951312e-02,-3.008263200715962163e-02,9.706458979258580921e-02
-4.781479904966075972e-02,5.225896811147580368e-02,5.301803022454062986e-02
-6.675323059434723483e-02,-5.690155332342889533e-02,5.647906250453800557e-04
-7.312993584811306423e-03,2.201704217828219165e-02,-6.102428937358747932e-03
-3.575007856093431052e-02,2.899070616529234728e-02,4.626510915540212564e-03
3.286582446220755876e-02,-3.786744843500784719e-02,-9.010060239174344510e-02
-1.520079214039853771e-02,4.432715892994457119e-02,1.901941073173363944e-02
8.433309415538173259e-02,4.293954281909142384e-02,2.643920836029302682e-02
2.006240623929573738e-02,-3.740200564126126143e-02,-1.711993495478019431e-04
2.168967473822203465e-02,7.114326506306785369e-02,-2.723193342935872549e-02
4.112061481119837214e-02,1.204054911440194386e-02,-1.657505717591715305e-02
-8.965074989735651034e-03,2.431435934365968124e-02,5.950637476951377985e-02
7.128815648219746261e-03,1.646981178666516443e-02,1.871849115188980311e-02
-6.845505429663460706e-02,4.497900066433527071e-03,-3.502341893405596512e-02
5.021917874307049723e-02,8.924444237105901012e-03,2.303560969398509017e-02
-1.197523897121532538e-01,6.735983913524347388e-02,-2.625944768038342841e-02
3.114685224547849782e-02,8.634618076507574735e-03,6.083125263178448816e-02
1.690721117382998698e-02,-2.165660588504932788e-02,5.738966871866318931e-02
-3.158407412082591542e-02,6.454286352593573313e-03,7.302405756554074256e-02
6.686230791909851534e-03,2.326237358665475194e-02,-2.723176033816403566e-02
-3.420609393702962048e-02,-2.276736051121648619e-02,3.142054572697072778e-02
-3.794414214122378542e-03,-4.451190762996977933e-03,-7.239898437243122604e-03
-1.016064461381755574e-02,-5.548710004413546885e-03,3.008283951405974019e-03
2.319268638760375867e-02,1.724277042147117842e-02,1.158578657683918406e-01
5.474617674384960747e-02,-1.781730847348877295e-02,-4.584425007125308288e-02
5.234150757258577980e-02,-1.373168107103571152e-03,3.141330534769403576e-02
5.377820806772831697e-02,2.156480965756955512e-02,6.015887609900540112e-02
5.855272736779775118e-03,2.893228376174609290e-02,-1.794232174153330417e-02
1.399315061388326648e-02,7.968801676469565443e-02,-1.114577700549524049e-02
3.952805510611945836e-04,9.695156496873543958e-03,-2.082751560144604705e-02
4.741968856494756246e-02,1.112290971757982083e-01,1.968431820675187183e-02
7.819124421498556757e-03,-2.280743745438160858e-02,9.091681460492363753e-02
-4.393320676527575491e-02,5.679463527022556024e-02,1.947434993306982817e-02
-1.497855232379512354e-02,2.116787087441442117e-02,-5.812203376847660009e-03
-6.521473006311483134e-02,3.398130073070107504e-02,-2.355466818516442629e-02
6.823412141713969259e-02,2.784579754774974339e-02,3.840198652034591646e-03
-7.203532792071231858e-03,2.165046676918884472e-02,4.242430631542162128e-02
-2.612713375280819022e-03,-5.759158230112741000e-02,-6.485019746601624127e-03
2.611190432032635747e-02,-4.319096866719731448e-02,-2.734086297271043700e-02
1.720251399592994529e-02,3.403235712514880024e-02,1.577553053587236326e-02
1.933680372648569415e-02,2.816633605204910129e-02,-3.693569792663735363e-02
1.002946625013333625e-03,-2.118239075474346103e-02,-8.664301637681207091e-02
7.568265953105217381e-02,-6.290465998670788719e-03,4.233736956235612491e-03
-1.391969974993237727e-02,5.304849230429464074e-03,4.075638297578451641e-02
-1.074002788880049214e-01,1.902462383565042131e-02,1.357769375950045911e-02
5.047956939363994200e-02,5.309579063808288549e-03,-7.281843437649969733e-03
1.661244578192185017e-02,-1.203144141069468695e-02,-4.133307806348383850e-02
-6.835345711477036623e-02,1.358267940720001357e-02,-1.528721664459791081e-02
4.384122097523400485e-02,-1.483178696332419604e-02,8.588140899775399337e-03
-3.905162714917956995e-02,-1.187462320762933815e-03,1.137729865468324088e-02
1.165983048128560289e-02,2.952579474825924380e-02,-3.627499755037721235e-02
-2.471020249336544281e-02,6.994681985798713308e-02,4.139100549067018658e-02
-3.063526041970187491e-02,6.489213307727231470e-03,7.507831882147997238e-02
-1.596780143836259297e-02,-2.480535006392123668e-03,3.328112063865361347e-02
4.202254018570049376e-02,-4.904998131982393587e-03,5.071615680105777402e-02
2.032039488442978492e-02,-2.984985132388151205e-02,-3.168242153940480088e-02
3.931458990085475586e-02,-1.077449217819948651e-02,-1.476949874579913842e-02
-4.634914832924434680e-02,-4.094970957065209582e-02,-3.479803650594091163e-02
-1.331824458374445373e-02,1.742751465287812468e-02,6.841899331454767696e-02
2.125445862199926844e-02,7.418324405304705174e-03,1.649605702606108185e-02
-2.590011870998020372e-03,6.786025752714527903e-02,8.158399945472891157e-02
-3.479912329142702959e-02,4.540124090435703613e-02,3.033198853316423568e-02
4.403983954752892227e-02,-3.574167893110721719e-03,-3.513056802413448698e-02
6.975658663250912384e-02,2.933239797352520800e-02,4.243684349490919189e-02
-2.913707362573758619e-02,-3.607730732286928976e-02,1.120787089678563012e-03
-5.772004241509757355e-02,7.417650590226787521e-02,-3.453966705101013668e-02
2.674042045857699754e-03,-3.601856634099841192e-02,5.149836129855684536e-02
3.719715246298287842e-02,1.730589233420650949e-02,3.762023189968060483e-02
7.449486036778125986e-02,-2.493735532253184197e-03,-8.731175723292880497e-02
2.565007697692479188e-02,-2.560527837109050076e-02,4.430450219201780698e-03
1.117548721926335357e-02,4.916754540110949284e-02,-6.322012974062480098e-03
-9.606978759131780399e-02,-1.048620671397299843e-02,-9.846658503231709228e-03
9.054574017678335141e-02,-2.759901800378869452e-02,-5.877503610306226978e-02
-2.056243859640894886e-02,-4.499660085847546030e-03,-6.169297321833923375e-02
1.141782669094610313e-02,-1.004394929215945698e-01,-2.782673576089378722e-02
5.262921465904764687e-03,3.085008039740130131e-02,1.907114028465910910e-02
-2.970629455495396240e-02,-5.726947987423617291e-03,2.428226306985122041e-02
3.128749536181725868e-03,-8.833087934556210080e-03,1.753099812244723887e-02
-1.814410522877081544e-02,-1.126287475577224424e-03,-8.282906347532195679e-02
-2.477931029842371513e-02,-4.187875281414209228e-02,9.190835030832513255e-03
2.221443133632116512e-02,-2.522689781324015043e-02,-8.091888476297414909e-03
-6.441910651731991289e-02,3.049929800762445770e-02,3.233191544350905861e-02
3.383770927450574506e-02,-5.235555605791326200e-02,-8.969852051347235872e-03
-6.061467043907518143e-02,5.599988746305339243e-02,2.144400892021260541e-03
-6.378174496608947364e-02,1.681974806700263156e-03,1.621053581584831760e-02
-1.001034562827831167e-02,5.998880568706363957e-03,-9.540908443770837466e-02
-3.482135093564768698e-03,-3.432280062686015459e-02,-4.250204537995930232e-02
4.147944799402793203e-02,3.527231686327357563e-02,3.683974118841448070e-02
6.337049448226401982e-02,1.993510348664226731e-02,-5.130078065873476534e-02
5.080047392051691840e-02,-4.227711281225178530e-02,-3.543177548249973417e-03
1.693654360349701113e-02,3.276722171562312241e-02,7.562826176380473518e-03
-6.193588506360433316e-02,1.282000657722019883e-02,-6.257929509338673590e-02
-3.229402225944750376e-02,-5.368829467774047237e-02,2.149320851845235112e-03
-6.267554065500340055e-02,4.375016173455206075e-02,-5.318080252299572062e-03
-4.412596244469366158e-03,-1.740194287788742952e-02,-3.850069069075609529e-02
4.313807969941497317e-02,4.792674341850294145e-02,3.837511373703191009e-02
-6.126692723181912346e-03,-2.992423843680459827e-02,-4.337810188933190203e-02
1.166917981142663423e-02,-9.641534884470429403e-03,-4.616475907288648817e-02
-5.618841855928398410e-02,5.421136525486490443e-02,1.669530663865688089e-02
-1.819897242317351435e-02,3.962504902380129326e-03,-1.440597181517710990e-02
-1.727613980461496432e-02,-8.678947973889518386e-02,-6.391748230428276334e-02
-2.615118027786737451e-02,1.889954607326648633e-02,-7.592033875739265247e-02
1.198253996361627570e-02,-1.393685599832174618e-02,4.631603454120162416e-02
1.555295072201373641e-02,-3.707983932221161488e-02,6.708370470767742455e-02
-7.975294127802171062e-02,5.739489226556228167e-03,1.163426572535766063e-02
1.923473036977321401e-02,9.301997618686736607e-03,-1.603192020610804812e-04
-1.936497805722742910e-02,8.779119968066644020e-02,4.506656577303670697e-02
-2.976769548157815609e-02,-4.630325666520544725e-02,6.164970025540914000e-02
4.918801015416836286e-02,1.169436004557714015e-02,6.581462382072394979e-02
-5.913356431860141565e-02,5.600653608071774758e-02,-1.481141669187534433e-03
2.149394982307168203e-02,-2.351210923778712658e-02,2.126130432913197338e-02
-9.191411928781494101e-02,9.731065060917831744e-02,4.652663380293094175e-02
-2.455782941031463360e-03,-1.233711834085237172e-02,-5.405734217042033191e-02
4.230196753221639877e-02,-2.212494975213168211e-03,-5.886981054779431843e-02
5.779256338419190564e-02,-5.109755662001615878e-02,1.905241551827853777e-02
-4.973839247016085402e-03,5.229925607171581614e-02,1.004140965287282986e-02
-1.346433536214460512e-02,-2.572270862251601481e-02,-3.739051579527682967e-02
6.153252510199954534e-02,2.957573431878930681e-02,1.395632808299997543e-02
4.750759819233393161e-02,1.232851113780582914e-03,8.759105746227357353e-03
1.971925494189476560e-02,-1.369486043546761130e-02,2.413391463869178633e-02
3.241388759220562021e-02,-4.712631313898301560e-02,-5.431499538664871785e-02
6.843114578116922531e-02,6.431515995553582776e-02,-1.006992500271443047e-01
-1.418830873589800763e-02,-9.260486459911963786e-02,-1.537939639657773076e-02
-6.444194264418628970e-02,-1.551603051895591827e-02,-1.030896348136363105e-01
7.027373064338943154e-02,-1.404633697975336479e-02,-1.215929311983121076e-02
4.335312030749648160e-02,-1.053019531424569284e-02,4.477891413310804841e-02
-3.955336142514224995e-02,-1.168923092003195004e-02,3.091599389330084227e-02
1.588830444234211325e-02,1.493288938579710907e-02,-2.583658243521040968e-02
-5.303956065483291654e-02,-3.567977156281809670e-02,-3.483664941159901607e-02
-6.545414953055266050e-03,-3.479563165788950030e-02,-4.139779890611262891e-02
5.273919000172064275e-02,6.563547011983889012e-02,-3.057051237447203085e-02
-6.563644594938665422e-02,4.009076447161874501e-02,-5.032992230482594836e-02
-6.377075539413236405e-02,-1.083678513066270617e-02,-5.781523047190091635e-02
5.013509749454148762e-02,-2.113742216861877812e-02,-1.099780999883099714e-01
3.434224077168688410e-02,-3.908344013005416590e-02,-5.834762702787812255e-02
9.350869708320093052e-03,-4.174186402053051137e-02,-2.436821755564587064e-02
-5.932208237540265855e-02,7.172235054586752201e-02,-2.070021566559842024e-03
-6.789208915251197796e-02,-3.131678350505157169e-03,1.499363564513739311e-02
2.927996874256723336e-02,2.704079527234365746e-02,-2.207159975818477615e-02
-6.063400299083195749e-02,-4.150966127704046327e-02,2.377320314145980884e-02
-2.042684623007769498e-02,3.501694481852160590e-02,5.011365995010202967e-02
-8.327641823240460039e-02,-2.656988993952074177e-02,-2.128172202217465392e-02
3.860283042726352087e-02,-2.525117524817137998e-03,-1.120951624504291227e-02
4.212371211143428607e-02,4.229775463922921634e-03,-2.586508038667447232e-03
4.525618074931660184e-03,1.002864944686704569e-02,4.927813243124073983e-02
-2.055250290667302512e-02,-2.355578093486435098e-02,5.495247969837521902e-03
-6.687447497485211889e-03,-7.764987455973815234e-02,-1.918310457975795635e-02
1.186666080069512718e-03,9.278659181604621831e-03,3.752373030538858067e-02
-5.833210715563662968e-02,5.505755747510165943e-02,-1.909194995709894913e-02
1.835682283334092238e-02,-4.063280165536604926e-02,-4.752540742871957935e-02
-1.993819669443695070e-02,-2.552392331415330798e-02,2.925164010180262772e-02
2.705249650055302491e-02,-5.957267692306564971e-02,3.480287966656311210e-02
-5.315956201702613099e-02,-4.496589507004496167e-02,1.740016741244870130e-02
-1.764597578175355896e-02,-6.760541795476444904e-02,-5.452367404799387217e-03
-3.500368687866521611e-02,-2.550985539180274184e-03,3.158664275733073790e-02
1.581339124798240500e-02,-9.311247007770295792e-02,-5.168526756273867859e-03
-5.146097797334586027e-02,-4.621226798096382538e-02,-1.660889493906067896e-02
-7.677030736387104037e-02,-5.597252328046851272e-02,8.496353960481302370e-02
6.301813009878792782e-02,-4.663735153957683510e-02,4.691140963337760844e-02
5.203781940582159760e-02,1.410564885151161657e-02,-3.554385435171796698e-02
-2.555032761352777487e-02,-7.133308664586066397e-03,-6.152770264151729424e-02
-3.148886254896076514e-02,-2.495209149097514512e-02,-6.577842631475966373e-02
2.527229798603691444e-02,-4.214142349492721457e-02,-2.607927287693055304e-02
-8.603249163445856121e-03,-2.132879276731929064e-02,1.747035745330865336e-02
-3.113853548017888120e-02,1.787155643071911687e-02,-2.744514302121911845e-02
8.621284082119944070e-02,1.406841893124272450e-02,3.948568261680848734e-02
2.470503860110343994e-02,-1.653984310574126149e-02,2.573599414413639541e-02
2.919435411870432984e-02,-6.683106668632260439e-02,-4.707233061737096935e-02
3.793304012529164632e-02,3.740977370254749967e-02,2.229339604085079848e-02
5.038804145995457590e-02,-7.796028979300072270e-02,-4.544507260380437411e-03
-4.234799468342412970e-02,4.307213478355922248e-02,-1.892058218039845835e-02
3.839181866292258952e-03,-8.280628408307056949e-04,-5.701508009652873910e-02
3.699919623412628589e-02,-2.112147356319291763e-02,3.852051215587029565e-03
1.718674279317818424e-02,8.066966362201501498e-03,2.427971530985224488e-02
-2.159011861762598957e-03,1.658399475989769806e-02,-6.882018911720709509e-02
1.354489582063271753e-02,1.381274708373466872e-02,-3.676992166236586757e-02
-1.173434167457833473e-02,-2.681223709713601369e-02,2.275408924653637976e-03
3.466967022161248496e-02,1.590991459827195351e-03,6.833378713403798210e-02
1.558609700938085908e-02,3.617079908248603537e-02,-1.947280413048918524e-02
-1.715387324595963464e-02,-1.863162761853597374e-02,2.208933902659849027e-02
2.983951381835476049e-02,7.824743243510934310e-02,6.766164277131714311e-02
2.725543064055384671e-02,7.060936050700919453e-03,-1.159807467068824267e-03
-1.638686588662196034e-02,2.349167516142376764e-03,-6.003765379388897871e-02
-4.922326661570767398e-02,-5.595657438358990488e-02,2.466934580165262500e-02
-1.687416807727379515e-03,-2.955059862774567399e-03,3.462015348730947129e-02
-5.063127076226195400e-02,-9.345124484173147547e-04,2.518002660350177405e-02
3.945469341333814745e-02,-9.169014222779799453e-03,2.142450306142112959e-02
5.419643862279276830e-02,-2.534163975439892441e-02,-6.127340270156752394e-02
-2.386532796903448328e-02,3.098657583138182334e-02,5.775594315168710441e-02
-3.653423894136694633e-02,-3.242041859617164970e-03,2.902274967125119051e-02
8.367842485663698482e-02,-1.696837576120231728e-02,-1.781606231212681801e-02
7.129752160476811144e-03,2.514495317209396522e-02,-1.067159878961728911e-02
3.849539586565547955e-02,2.956611177878394267e-02,3.358022519336689021e-02
-4.276407533538545414e-02,-1.076312304552344695e-01,8.348014103733183977e-02
-6.005322638180301403e-02,8.696932334862685077e-02,-2.674502155966979738e-02
5.692409399920167479e-02,3.324345240161453302e-02,1.271245871124889598e-02
5.220918783964433908e-03,-6.462575068258059885e-02,-5.478099478724029331e-02
3.008399275715393020e-02,1.855240470275051293e-03,-1.671580100380739078e-02
-3.195235589251794323e-02,-4.034975686355337515e-02,-1.580519410253691456e-02
2.205723140616754410e-02,-4.927572751429123293e-02,3.918537321134524243e-02
7.365789911250845805e-03,-4.416725297842417908e-02,2.532218878398760642e-02
-4.852980417905189414e-02,2.360988530635797777e-02,-2.098510671519506973e-02
-1.666454291485738523e-02,2.386093643293544370e-02,7.269349504133804617e-03
6.720042757775092357e-02,-5.166290890284017112e-02,5.238634391479241037e-02
-6.624589110919083812e-02,6.824556523750099132e-05,4.601123676161101433e-02
2.862648205081855766e-03,-1.478125695282518810e-02,-8.367265121755153301e-03
3.838925859875141205e-02,-5.453046844277967958e-02,-6.297243090138366500e-03
7.996144945121345937e-03,-5.847992343564444029e-02,8.093982045787914692e-02
-1.002780838249210920e-03,9.926289848507022229e-02,-7.701132480253473911e-02
4.054960416734696566e-02,6.757569021967083263e-03,1.860383220586304823e-03
5.161082519654813100e-02,1.992518979816653227e-02,1.423948824119303409e-02
-4.863153565977950538e-02,-1.310572739741365858e-02,-5.534774949805781885e-02
-2.089090268099848963e-02,-1.235434110627995838e-02,1.561759665566882921e-02
-5.789299873335601587e-02,-8.826467854447640760e-02,5.450258825451278870e-03
-3.578398815555879076e-02,-7.357059797824048140e-03,-3.384468932414380626e-02
-3.649009532756230124e-03,-7.425994586180821588e-02,1.268785744207889636e-02
-9.442435932776920698e-03,1.276100737868578368e-02,2.232400683173047309e-02
6.689628419931722969e-02,-7.797299566277731894e-03,-1.487694130160656728e-02
3.327400050573525725e-02,6.233245128886980013e-02,2.406725240710815006e-02
-2.198740142451562074e-02,-5.627236600585568821e-02,-9.369884596313264157e-04
-5.526236049974098986e-03,-1.529046864008491713e-02,-1.627703047860304744e-02
2.886621858356672524e-02,3.194563152432258052e-02,-3.791951230772302311e-02
-3.619850441301750155e-02,3.454604166242254693e-02,-1.623596558622646818e-02
7.385976187171573726e-02,-1.340554024576836104e-02,-1.161539213725276513e-02
2.550731696259558867e-02,4.027228308198948885e-03,-6.135927564331053463e-02
2.261034645145793692e-02,5.447778204956532644e-02,-2.855121306793393862e-02
2.102994745145649741e-02,2.522430796193549443e-02,6.532134858122184973e-02
2.156988061275772958e-02,9.044630823838603617e-02,5.043118105734200468e-02
-6.112228649814249043e-02,-2.155166256310220296e-02,5.228522930146133930e-03
-2.832325964782628214e-02,6.075574107810520486e-02,-6.066941352559321321e-02
-3.811466439486996954e-02,-1.634143282127297619e-02,9.037370264255670596e-03
-2.457775487649093912e-02,-4.457308769505884116e-02,-3.394816579938064738e-02
-2.037118701993640216e-02,1.519787424871977058e-02,-5.078330174130712277e-03
-9.615919764122422136e-03,5.421423561020470572e-02,-2.429270651024564506e-02
3.092248578257180899e-02,3.835201059993201701e-03,-9.974086094759438206e-03
-3.284944610065033965e-02,-2.120739181501523837e-02,6.686488350245853307e-02
4.406264426042873217e-02,4.675962709926152761e-02,-5.331551202684933419e-03
-1.439969772545212148e-02,4.168709593955442771e-02,1.633715642429950030e-02
-1.314136922706688089e-02,5.360203093564905839e-03,6.604147155291531512e-02
-4.182663978836803631e-02,4.341209900649001252e-02,3.102431484472780582e-03
-2.542812415058893008e-02,3.391211434011748294e-02,6.019581955399856861e-03
6.941017316062286779e-02,6.545333175675480120e-02,-1.772553051541940483e-02
1.148158565037518154e-02,2.899215352253413369e-02,-5.089659727417268631e-02
2.529318754328518590e-02,2.914812681115610399e-02,6.835879588835087894e-02
1.404000210795766299e-02,-5.717181467970473135e-03,1.165496182115541811e-02
-2.224134728606511416e-02,7.929840356272446766e-02,-5.678421878585178384e-02
8.934086135748755056e-03,-2.996192879598178621e-02,1.063791030604010757e-01
3.233773249306219622e-02,3.604201038164356330e-02,-9.798724565941134210e-03
3.118472737099047681e-02,-3.054440202791713910e-02,4.412474356342314941e-02
-4.079002096279295275e-02,-1.619802184064999748e-02,4.116426758269172564e-02
-3.842024427915105567e-02,5.684675100240800180e-03,-5.707733972867928135e-02
4.222083507411408809e-02,-3.951297486666240089e-02,1.762465844674050708e-02
-8.732064473368616325e-03,-9.735563398361612997e-02,-2.602220546315242578e-02
2.882202010592718050e-02,2.254295231019272795e-04,4.414499349079236280e-05
5.945809001404211980e-02,-6.855836063042159735e-03,2.539768834782244172e-03
3.069246244656281472e-02,1.602300053419405609e-02,6.521038218356632610e-02
2.518449239481948543e-02,-1.361318167815679658e-02,2.392916418824722613e-02
-4.102610504189798529e-02,-2.376874189399012099e-02,-3.630197332921365760e-02
1.829153385083354469e-02,6.536935997949837318e-02,7.411321110409152535e-02
-1.471192750620894767e-02,-3.215528481750431350e-02,4.415975330782196534e-02
9.441229743733564952e-03,2.089396978048661119e-02,2.076437541954958069e-02
3.000968835327396528e-02,-8.072678195595878181e-02,-7.393087775335743794e-02
-4.397793066435441711e-02,3.487881244004407272e-02,9.391728690003292579e-02
6.129565298268167123e-02,3.335775284144286423e-02,3.410980886532879314e-02
3.683708871746078223e-02,-1.767694942757312357e-02,1.773514691838336960e-02
-5.509003968483805469e-02,-3.136587534954653200e-02,-1.049422437170103861e-01
3.341560096106176159e-02,8.666952895461814410e-02,7.903922527733637030e-03
2.816360054672985714e-03,-6.804891541743902927e-02,2.790483807607587602e-02
1.557845012604996623e-02,2.114965369288334882e-02,-8.852477277056022831e-02
3.644624676607770286e-02,8.306129710998395865e-02,-3.078097852436957951e-02
2.266713721809585427e-02,5.339887681301020567e-04,-5.149893982214233390e-02
2.570498618016402864e-02,-8.744011554871899614e-03,5.033092865028833407e-02
-6.751859299640386447e-02,-4.501119448031085796e-02,2.490366442041588510e-02
6.958401673971172097e-02,4.600908538200806919e-02,-3.081575697506620803e-02
-4.139832675406068807e-02,3.587715783056314583e-02,-1.403622103217123072e-02
-3.551015146652412163e-02,-2.702923999733210930e-02,-1.855484185566728603e-02
-2.564434984405553411e-02,-5.165840099349644499e-02,-1.319310610412982067e-02
-3.416629094011723600e-02,3.905313752259939597e-02,-3.036838576584925675e-02
3.280303716838783162e-02,2.211412957289542180e-03,1.194472591474869325e-02
8.018482819896079195e-02,-3.935312114724443672e-02,3.151208634049851992e-02
-3.473015523707022323e-02,-1.567757137844304899e-02,-7.025978818093209927e-03
9.418594399921176655e-03,-2.151211782882112965e-03,5.312296646319573240e-02
-3.036111407428979635e-03,-5.421862011891698946e-03,3.325375171229151550e-02
-1.308037851125345812e-02,8.155669547666041796e-03,2.115149540948027193e-02
-5.685451550983276064e-02,-9.895415305439857201e-02,2.061402738779756494e-03
2.998263896631848946e-02,4.231841590325643998e-02,-4.937909479510792232e-02
-9.429327114028315804e-02,-1.098847567428984234e-01,-2.102855442943530814e-02
-2.041389683617640324e-02,3.329541041499346765e-02,5.436422203409172621e-02
-6.193985600349008296e-03,-2.474600343529893484e-02,-7.090042662407100051e-03
-7.731876731543246839e-02,8.543790156635926170e-02,-7.906120211008314802e-02
5.203488861592193981e-02,3.596159986160566563e-02,-1.191900330898903460e-01
-8.126672275048232169e-03,-1.925819339129990551e-02,2.345986763455162796e-03
5.546880055631216166e-02,-6.022849913225618648e-03,2.212937793643194109e-02
-2.177357744457034117e-02,-4.290704247099101643e-02,-3.162778264255761140e-02
9.170685869250508326e-02,7.671022126529911112e-02,1.563464875308474139e-02
1.782255519468366536e-02,6.856257793256144428e-02,-1.304570829211524653e-02
7.735783957361794250e-02,1.722853461791638147e-02,-5.242565653366898504e-02
-6.047793718101843186e-02,-2.922274041749123655e-02,3.774131968642460006e-02
-5.829712233946483801e-02,1.145716623040093874e-03,-3.231360025016431162e-03
9.421732206166161250e-02,-1.814773928534535279e-03,-2.127134303427811231e-03
2.914495115035975817e-02,5.956861818985643119e-03,5.779252349019316920e-02
-6.318681116739781334e-02,-1.009602369460138073e-02,-1.035688691002745881e-02
-2.445722469360021509e-02,-7.272966067197526689e-03,-1.171712458895784320e-02
4.729201326115969883e-03,-6.204645376246590432e-02,-3.276626673813218694e-03
5.263766715261771617e-02,-3.037193738116628419e-02,2.505115470789685481e-02
1.849265968092167131e-02,6.934497774749811584e-04,-5.489792432427603036e-02
-2.616702048572337388e-02,-8.616329062922582771e-03,7.239013270627055185e-02
2.458233052836168719e-02,4.253016300933797067e-02,-5.900886301205021667e-02
-2.225942891830472170e-02,-4.104825693244219115e-02,-1.762034319261409623e-03
-9.859107150581740420e-03,-3.650488529343715732e-02,-1.300479536023302005e-02
-3.389605342469225596e-02,-1.329749241831905925e-03,-2.990854567789195603e-02
-9.512575580808486919e-03,2.333164408401352651e-03,-8.653638986032208963e-03
-9.126719238380320842e-03,6.582251768259511637e-02,1.409548399123046469e-02
5.205090740181894833e-03,-1.695525335327128721e-02,4.404040297448316016e-02
-3.713167611299767606e-02,2.579086810521393283e-02,8.429090221741793176e-02
-3.613948586969353144e-02,-2.126322439406176743e-03,-4.591277927283603927e-02
-3.385964627887669970e-02,1.807958442188679557e-02,4.201140371142302044e-02
5.638569486690916260e-02,-5.521265263123237982e-02,4.329226887607008634e-02
2.810334065617949365e-02,-1.261668514475971191e-02,-3.333558762410848697e-02
8.311574707890310998e-02,4.525645539639719384e-02,4.744497788998865845e-02
-6.807782162702437530e-03,7.875011706673727685e-02,-1.235223516226901033e-02
4.834325787271333968e-02,3.674505006166402243e-02,3.253067994403911062e-02
1.390522910013958007e-03,-4.293326399618489775e-02,-3.692611073004384986e-02
8.398838542817596564e-02,1.154432436143891343e-02,8.837097536882158877e-02
7.232652826450645944e-02,-2.004935809353220605e-02,-1.303320786052151840e-02
5.520723076818896680e-02,-8.513058234910882149e-02,3.984470035095193791e-02
2.213267355656962920e-02,8.623434296423729273e-02,-5.692650194875726460e-02
5.775559948808076799e-02,6.784710268341830053e-02,4.653297135379950988e-02
6.420374046227593501e-02,-1.414381127244565203e-02,-1.747353981780925061e-02
-5.643598729737272883e-03,-1.148126779024427474e-01,6.787857821574438261e-03
-8.977019933003378693e-03,1.529955065958204900e-02,-4.277757694452957726e-02
-2.542879376030368968e-02,-5.829043960231029137e-02,9.147257291864439865e-02
-4.400808567806667460e-02,-6.754343154672318161e-02,4.634019163556926104e-04
8.778202634184226194e-02,-4.694298401972703261e-02,-6.421740798836023112e-02
5.404704292226348433e-02,4.703015199624746567e-02,5.554112931393176411e-02
3.891915870286290907e-02,-3.020920749710170536e-02,3.347289029964029689e-02
2.952065856004924826e-02,2.164858117283150613e-02,-1.850630419332587040e-02
5.593341359280348812e-02,1.096434683897137656e-02,-7.827268229050210469e-02
7.653466207829921764e-02,-1.073988596184527987e-02,-2.678955686770078184e-02
-4.850184150255458515e-02,-2.723062572633251632e-02,2.865755548320370397e-02
7.264044931180982899e-03,1.787212896115140254e-02,-8.645882166551578651e-02
-8.715768797769810061e-02,9.289526578636553289e-02,3.736606565067870228e-02
-2.149624524250392382e-02,6.374592386027290447e-02,-4.498709614343540664e-02
-7.751062783905343645e-02,6.377169724804011321e-03,-1.428665754478563796e-03
8.037329153628633427e-03,1.553565087806678575e-02,4.985177504974084434e-02
7.386041389755530762e-02,-5.805944238365954441e-02,-1.349940514532465552e-01
-4.420663102521107946e-03,-4.131172554863047491e-02,-4.235952743586868241e-02
-2.274619540363014610e-03,-7.328604272247498698e-03,-3.380087696910000911e-02
8.192547767403775272e-02,-3.015591105843349815e-02,4.224417734260760976e-03
2.070255100513760174e-02,1.079876068571023091e-02,1.320780658360527771e-02
-3.143807799596252256e-02,2.302793345112521053e-03,-2.003412124774501916e-03
6.203673347475641836e-02,1.523871269174283984e-03,-3.014337647142107529e-02
3.480289901673194047e-02,1.953410923299433652e-02,1.251721814316198410e-02
4.704230377892321818e-02,4.807758916118515941e-02,3.123141502075411219e-02
3.245454222767961677e-03,1.741079671481006799e-02,2.512395634514460324e-02
1.354577404306796587e-02,-6.688642022650917451e-02,-2.971914233298411298e-02
2.047142369832380404e-02,5.961079130954555216e-02,-3.400271706324811856e-03
1.230420314945137455e-02,1.797575760472261766e-02,1.858193703520771498e-02
-1.017514750667100065e-01,2.822141844799498644e-02,-6.890853694762669179e-02
3.851847742483081177e-02,-1.569182349732370363e-02,-6.751041049733659538e-02
4.648851053868788274e-02,1.711387255311408104e-02,-2.906780607939439542e-02
5.098654372169941773e-02,-4.170409088444750056e-02,2.010196788279798585e-02
7.604746208030908894e-02,-6.875945163572845520e-02,-2.519256753447645519e-03
-1.031569401393779388e-02,-1.538383469159775897e-02,5.522519309731473841e-02
2.461133191906531362e-02,1.096143803449281355e-02,3.417051588779351085e-02
3.108018772885073801e-03,-5.022604724492774064e-02,6.025354317893865524e-02
-9.023130138173971262e-03,-4.533085928283468041e-02,7.009747758549458689e-03
2.199659045041638464e-02,3.366518738639841940e-02,-5.004185919393312754e-02
-2.881364650057313334e-02,5.591855578246744500e-03,3.834962735958183377e-02
-4.872491661293049808e-02,2.909959965131073134e-02,-3.607556312637091867e-02
-3.030481836905177598e-02,-1.071119057036484523e-01,-5.545679255061805590e-02
-7.355092824545400587e-02,-1.461502175846697005e-01,-4.770483999991537855e-02
4.351751535688861555e-02,-8.155404047210598750e-02,-5.479206528582650226e-02
5.016726767106521878e-02,4.769339086637720132e-02,-5.920100599265980257e-02
-9.157503850971630832e-03,-5.529989218089515976e-03,-5.298117724596471123e-03
3.371167710327967193e-02,-1.817314826545615020e-02,5.791025535398100499e-02
-2.347698461833331099e-02,-1.803042851810617367e-02,-3.596531877031097779e-02
-4.332160029103360177e-02,1.696475323404477483e-03,-9.192092864666410318e-03
4.110860745930396132e-02,-2.009358430744444951e-02,4.246771742310855025e-02
-3.591292009295618537e-02,3.939143994870809157e-02,3.866532175007865446e-02
2.175036224072468202e-02,-2.172366861719620887e-02,3.744250384195742243e-02
3.633998456045139935e-02,3.128946268679675541e-02,-1.792530403755590931e-02
-3.438344376789784131e-03,-2.427269969757948551e-02,5.604890000402133060e-02
1.041285523363081906e-03,2.302748213109824527e-02,8.623604913871157560e-03
2.399057816554907643e-02,2.871129273444750565e-02,3.310646506147105900e-02
4.555769137575165634e-02,8.331823219348459542e-02,8.449126215504891568e-02
-6.800677853523404148e-02,-6.978260117953992946e-03,2.807755036545525260e-02
-6.138523681815159089e-02,-1.723232036512335752e-02,2.750799092016681033e-02
7.181958783665702561e-02,-2.100650057467866663e-02,1.009007581800296961e-02
2.659250897160178942e-02,2.020868350142165926e-02,2.203929502803841228e-02
-2.739992052869025946e-02,-6.614724400787189151e-02,2.731282751649579191e-03
2.570595774727684607e-02,5.254171729571380234e-02,-5.064576944486622045e-02
2.142012706543253847e-02,-6.393315527385194652e-02,6.835547395255207881e-03
-2.359869182588386974e-02,-1.006159214725101288e-02,1.477616633708694199e-02
-6.497909031099512178e-02,3.881502455124370005e-02,2.942880058380107494e-02
1.545434575708270163e-02,1.522379883575879743e-02,-6.841550789607994676e-02
-2.218710956655077504e-02,2.305507913990597832e-02,-1.728474341442518686e-02
-9.154407927247493887e-03,-5.047861248729089423e-02,-1.853413567927513286e-02
1.563008098198305496e-02,-2.074671085333634844e-03,-3.748928328264807680e-02
-8.797502981047337564e-03,-3.117869172785622464e-02,3.244631203469856839e-02
7.360004757230437060e-03,7.898408783267178712e-02,9.718471208171312881e-03
3.420858521377555250e-02,2.117902270879469528e-02,1.253675886809916748e-02
-5.057816150088106921e-02,-7.920842091501362897e-03,-2.786770141949915583e-02
-3.392705868983657280e-02,-4.465745814810577648e-03,8.363259857527560737e-03
4.511639887335794352e-02,3.456312617931588810e-02,-2.201251207423879364e-02
1.438590818776712410e-02,-3.431594243054294363e-02,3.442413933792474404e-03
-1.089154775535642120e-02,9.222486948646154911e-03,2.310761435101370970e-02
5.538309710773860889e-02,-3.783598103432745524e-02,3.772520082402478631e-02
-4.625720326621855782e-02,-1.878607349675293428e-02,1.749142578737468770e-02
5.637586901997209549e-02,6.113893241258189226e-02,-1.272165841291674100e-02
2.845459645400423912e-02,-5.497419102522321799e-02,-6.714054396512533426e-03
1.786921904156526381e-02,1.178357952387546065e-01,-1.673656813547773001e-02
-3.975979356677523252e-02,3.780876987593789762e-02,6.132685714322872600e-02
1.077415429276326331e-01,1.669910571612579680e-03,2.946799795732844493e-02
5.508908915148952312e-02,1.521627730332771565e-02,-1.306338798285695650e-02
-2.630229458405438162e-03,-3.973893606786246813e-02,-3.157334304244538425e-02
1.199487674252777171e-02,-1.551930750490080647e-02,5.146670213372891989e-02
3.398202416345113414e-02,2.942087624625911585e-02,1.878078920547847711e-02
4.297964506148718722e-02,-4.512590478815492814e-03,9.419788221727403918e-03
8.687206425555895478e-03,1.603502150415804170e-02,-9.025145216413390722e-03
1.113588931976927481e-02,2.372018316109354361e-02,4.441228333119580721e-03
-2.111068287990934197e-02,-6.508106894662359088e-02,3.346650664207994480e-02
2.970731023881014593e-02,1.682504501167179575e-02,7.229325678044404291e-02
-7.133196445728735673e-03,-5.294653050066552152e-02,-3.660907686928816657e-02
3.497700499734882756e-02,-1.396939511764097239e-02,5.753618350921453628e-03
4.089378494106300083e-02,-3.074198533387336243e-02,-1.802497581698586995e-03
-1.329614239178152253e-02,5.375567708931460603e-02,2.755692831172652790e-02
-2.184041473769652696e-03,3.632807822418170508e-03,5.321922801916509523e-03
7.866784003769497491e-02,-6.679383221293478008e-03,-5.515354249918115806e-03
-4.475580725096871965e-02,-3.672090556663979571e-02,-1.067011267907681249e-01
-1.410264194733794677e-02,-5.030387007641529129e-02,-6.058631704978947180e-02
4.949076888198387925e-02,-3.637224884657392493e-02,-1.598594261779873529e-02
4.372928303688156798e-02,9.925442336787288627e-03,9.224173625761966991e-03
-4.486974813321492096e-03,1.674486816463189448e-02,-1.788513244844938677e-02
4.147663928166178682e-02,5.154881400235297034e-02,8.612887465839808021e-02
4.686345091115135669e-02,-6.132521087395684939e-02,2.805851692500713201e-02
-2.185304935282669780e-02,-1.306381525342031544e-02,-3.032723898434613354e-03
3.539138408477302683e-02,-2.891301129715521251e-02,1.198880491346278158e-02
3.825136756986203396e-02,1.267179535664468733e-02,-6.486708417793522752e-02
-7.353712586962125874e-02,5.231317142152250299e-02,-2.925140980683380368e-02
-3.584617091222515664e-03,-1.410406247177577004e-02,-2.039468411489840649e-02
1.059523538330001645e-02,1.537269956466051461e-02,1.049977586131140483e-03
2.327818079219161687e-02,4.528009121371962681e-02,1.941836544515145729e-02
-8.448129118369151688e-03,8.500966510144855603e-03,2.989171980238970738e-02
2.013055381113447104e-02,-1.065135406500703104e-02,-1.707343281083208847e-02
-5.604808823331487028e-02,1.864256719260382403e-02,-1.697213329658054520e-02
4.400642017713009974e-02,-2.333591924305134652e-02,6.161533061748060425e-02
-2.336117907232585292e-02,-1.568632871227521736e-02,2.463632782401707980e-02
6.560316811721149388e-02,-1.818066196667271830e-02,-8.117480938358307557e-03
-4.718103660967717938e-02,-1.326004519184152165e-02,-3.133406361754162428e-02
-8.811765065205170305e-03,7.833203999193834310e-02,-4.174595525380903754e-02
7.656458539340569268e-03,-1.117048388360027539e-01,6.887392841877032490e-02
-6.598273917614258521e-02,-2.854473657322280714e-02,-4.056927118964149398e-02
9.886716803405769249e-02,3.023485292066946037e-02,-2.791866011985430062e-03
8.947642290970129943e-04,3.611986092984020413e-03,-9.025102000258161672e-03
-7.997816513853648474e-03,1.447425598099881007e-02,-3.549140748758384395e-02
-4.779839654967914936e-02,-3.419104688551927868e-02,3.804159779571484462e-02
-6.507446509544555224e-02,-4.230352452672292429e-02,-4.329502893489051846e-02
5.819499229494016351e-03,-4.991964721315941128e-02,-6.073055624553093390e-02
-8.232479689471587691e-04,7.588220845097524980e-02,-4.310692859714036589e-03
-4.869945817409837563e-02,2.941193348705270494e-02,-3.419981061408419731e-02
-1.249311479227640902e-02,-3.845515985774564105e-02,5.341609894770048966e-02
1.560092587557907438e-02,1.506636319641889996e-03,1.749137514039278071e-02
-6.402006291306258645e-02,-3.484048931082014966e-02,3.206400812668705469e-02
5.621215254977313114e-02,-4.304739540892300875e-02,-1.161677460079351418e-03
1.252938302974626258e-02,8.532568696573979844e-03,3.040132900333405649e-02
-6.694659013151202376e-02,4.957317493979157552e-02,1.378729342888518859e-02
5.013044467657130909e-02,5.664276887328575927e-02,-4.115872890068722478e-02
-6.024259542979631260e-02,2.306402300819124576e-02,-6.769643534917955952e-02
5.352915325897061871e-02,2.990979792383629404e-02,3.910312174467093366e-02
-3.540268078319670775e-02,1.267717699304570650e-02,-9.302633945732823040e-03
-3.081815818960832037e-02,-3.907882111078511689e-02,4.087120916845701779e-02
3.352196676556484789e-02,3.854309223887314451e-02,-9.536008075981412813e-02
-6.406182177157056234e-02,-4.695462119549100727e-03,1.951233308405533884e-02
8.369669650782889103e-03,-1.029662361559709055e-01,4.394476039455919025e-02
3.976968773907454957e-02,6.256062200757109282e-02,1.560607678113263425e-02
-2.027047532653661679e-02,-5.509733691237856182e-03,-4.610976026166217984e-04
4.356970497480639609e-02,-1.862439176684274611e-02,5.460124083056269034e-02
-3.335104234418685698e-02,-3.083341586409385146e-02,-4.429517731206460834e-02
-2.389399074587877578e-02,-6.615766140542757474e-03,5.319840915589617997e-02
6.030313338129536516e-02,2.750543531409543191e-02,-1.291828322435945552e-02
-1.826182288981469809e-02,-1.563782649524634444e-02,5.126704299856370273e-02
-1.050548932661532833e-02,-2.679833884050368195e-02,1.589635702138975787e-02
-5.354508236015317890e-02,-2.859115385624411490e-02,-5.064870745117299594e-02
-1.790141646056448658e-03,1.236251786030371710e-02,7.110116991850569390e-02
6.380326300793721928e-02,1.167630821457199715e-02,-8.625852315179337315e-02
-2.817640673744488400e-02,5.386905769767518642e-02,1.226990465804554328e-02
-3.870058215973786603e-02,1.601171317219416898e-02,6.829469587256514426e-05
-2.040800738720692509e-02,6.686374704295584837e-02,-3.474300092612023910e-02
-4.343574863609818426e-03,1.975080129627836177e-04,-5.946822709725830408e-02
1.695170505185857046e-02,6.044166202638901614e-02,5.718703295285954002e-02
-3.908849764677950478e-02,-9.707111626039804930e-02,-5.292576250645827235e-02
-3.795299446275385291e-02,6.102160007719435036e-02,-2.818968915151573787e-02
1.006907077769546993e-01,-1.166679482205739722e-04,2.551887527253128563e-02
-1.574602972661234140e-02,-3.880803870687783014e-02,4.301419171165440924e-02
6.953838645561974396e-02,-4.744057131542402800e-02,7.337579014489462904e-03
-6.494628320585298098e-02,7.385679006201383186e-03,-1.825521874123179830e-02
7.864210148049174953e-02,2.358287808193659449e-02,2.914270427309520808e-02
3.332681794220598154e-02,-7.655771996677991631e-02,-3.743588452842370757e-03
-2.002033550416004292e-03,-4.273890491938973912e-02,-6.889199878828014198e-03
-1.599176331864457165e-02,-8.151358912345099683e-03,4.431863504533370413e-02
7.286639499609184889e-03,4.053746619755832503e-02,5.038190577472786980e-02
-3.270376676565787261e-02,-1.699891650926509123e-02,-1.072478226983796801e-01
4.821138625468199788e-03,3.727489648631555647e-03,5.790974497330465126e-02
-5.398848993783927908e-02,-2.817118031690063126e-02,-2.730958960238190347e-02
9.310518747729612868e-03,3.238021781709841951e-02,6.979646549458080884e-02
5.069099735422067515e-02,-5.603197129941640819e-02,-8.263199090142658854e-02
4.121475174029023969e-02,1.004328705691233566e-02,4.041007162132692577e-04
-9.356537623412118643e-03,5.626176353179346279e-02,-3.312858599100236990e-03
6.157544409934375546e-02,6.005765120961508580e-02,-3.012522134715771988e-02
1.636182583198674684e-02,4.838005707140018846e-02,-4.251069105921508745e-02
7.653219451154673336e-02,1.119217303504206965e-02,-1.923577322131643508e-02
3.072341200047607954e-02,-1.935363260155094356e-02,2.934078036011181917e-02
2.127565868000278262e-02,-1.804576446326556713e-02,1.548705000090007389e-02
-3.994408775908587367e-02,-5.978281678253886261e-02,-5.950554752188189772e-02
4.491440662700890013e-02,2.722403228825983831e-02,-6.478874688765080825e-02
3.816839709491143609e-03,-2.488133268395387523e-02,9.097060677305007781e-03
1.806355859558530716e-02,1.889417772053443231e-02,5.166648665966315328e-03
1.441359509260110687e-02,-7.623441207736669778e-03,-2.096371794094605001e-02
3.557556232393461332e-02,9.777721362760682239e-03,4.066426293901608674e-02
4.869175590469808357e-02,-1.138914414278933557e-01,5.091741644083757137e-03
4.615411312695876823e-03,5.494990843904792865e-02,9.890194437612600392e-03
-2.146103953813568999e-02,1.930132661954895093e-02,7.134282231230693917e-03
4.025557019418166127e-02,3.547354258581113945e-02,-4.057199508508248231e-02
3.960248952396432098e-02,2.654134635726147773e-02,2.763652327263831088e-02
2.595458724439717729e-02,-3.408982218973324874e-02,1.121837829386766218e-02
4.725460177467984829e-02,4.579988778355326834e-02,-4.348102788466278595e-02
1.023779595095745676e-01,-2.960627811372709695e-02,-1.236756315047290132e-02
3.335218021416866407e-02,9.962726720999968977e-02,7.091504339000019586e-02
4.265727379951048115e-02,-9.434108850390797787e-03,-4.711631957367337642e-02
3.555963037803875487e-02,-1.734176055970417570e-03,1.146491698974891338e-02
-5.429175203411635425e-02,-6.042445903016412101e-02,-9.148919512670582134e-04
-6.978929094252067124e-03,-1.906015389167924068e-02,7.361620445525320078e-02
1.206492660126631637e-02,-1.300804342480251299e-02,-6.020780229625847385e-02
-3.930732241050511472e-02,5.378451786960411138e-03,2.417893462521858786e-02
3.727145614979736343e-02,-1.157754480789796245e-02,-6.774305842188767246e-02
2.517320320470011960e-02,1.595639738941244390e-02,2.736545497944144895e-02
-6.510880160239518842e-03,3.162185556705689182e-02,-3.167362886854986626e-02
2.340227612765467119e-02,2.529063233429409974e-02,7.986843910484360543e-02
-1.897261344699105803e-02,1.817728071371857435e-02,-2.539457818273200065e-02
3.395391911891344067e-02,4.362568679617040424e-02,1.451903338314802783e-02
4.110259657211787904e-02,1.912537847638923422e-03,-3.908931001537957473e-02
5.914534311452684760e-03,-8.024166108596374192e-02,1.671456430699799073e-02
-2.296405901506924987e-02,1.155665706008421854e-02,-5.563648200499492907e-02
-1.348215731583375957e-03,-4.318756215657169190e-02,-2.458680209570057382e-02
8.078989050374496203e-03,-2.520110309335027096e-02,-1.796948059040085963e-02
4.240543464205385332e-02,2.288672721237464819e-02,1.032551623307264091e-02
-6.594651618001846904e-02,-4.897681140576216896e-02,4.331424507930048406e-02
2.486685620261651700e-02,-1.346510179332167413e-02,-6.889294958555029769e-02
-4.288968178347751705e-04,3.263281608893379288e-02,-4.578580001317480996e-02
1.699586080832908228e-02,-1.284492851154553708e-02,-6.178229516665171422e-02
-5.942190218067715246e-02,-9.289993679256469683e-02,4.361801045058492921e-02
-5.031887582496789857e-02,2.912132706192082244e-03,-1.192511656998800247e-02
-8.501787066272696591e-02,-4.557435531862984862e-02,2.374531806434469761e-02
5.228657860085889932e-03,3.350160122388382705e-02,3.052289471890748743e-02
4.149618681257116748e-02,7.923286820187536161e-02,-4.444863809580238551e-02
-5.718918117344398006e-02,-5.510002051236542742e-02,3.933141823964367463e-03
2.549448055655591239e-02,-1.923388928979900825e-02,2.241098322357909164e-02
8.740506442111082436e-03,-4.082526969981316312e-02,1.121024506998916093e-02
-2.600989382220154217e-02,-5.352904626823789397e-02,2.035283382259861842e-02
-7.960981520726591321e-02,1.702972098453865366e-02,1.031693491691799622e-02
1.807357876316644310e-02,1.580065423703092692e-02,-4.957774573361586889e-02
5.192800182443448390e-03,5.682938267625657972e-03,-2.845098416059323870e-02
-8.517515306892370049e-04,3.715960283945542869e-02,3.136090352786783742e-04
-6.560449644263642577e-02,-1.185977702522529598e-02,5.312713865939658331e-02
4.215604715358014370e-02,4.495189212359408659e-02,-1.205116685463178926e-02
3.202602416744097097e-02,-6.056181040966024387e-02,1.853810608037265509e-02
-1.141119576857735525e-02,-3.397643191399615792e-02,-8.023836959346355947e-04
-2.517491251429267163e-02,-4.372255370113771467e-03,2.507751839524704346e-02
6.883732822929954087e-02,1.389593951113730734e-02,-1.242682596910153411e-02
-6.683206123991596026e-02,3.754644314713134062e-02,-4.377401753742848900e-02
4.013641436228651375e-03,3.696900614809676966e-02,-1.238701929314639169e-02
-9.323223551799252051e-02,2.056664091347516071e-02,-1.415003606896482642e-02
-2.596201200354498681e-02,3.102768174221135627e-02,6.265646289195787692e-03
-3.484915590042226424e-02,-6.407138242627162528e-02,-3.272879606926666629e-02
2.480036848230696492e-02,1.156553680917284804e-02,-2.948552191685627558e-02
-3.491188129950675845e-02,-2.610894395441594462e-02,7.165947067144262661e-02
3.703732274592609619e-02,2.631702565715094214e-03,2.755668569475033716e-03
2.304923867439543500e-02,-3.514445115510134599e-03,6.867895612113171511e-02
7.967011224586732776e-02,-4.680354983291278720e-02,9.978980876773010239e-03
4.470268874507459661e-02,4.357890258702361297e-02,-4.005162479604970627e-02
2.971928425490782608e-02,2.145414003471164677e-02,6.552799074458312556e-02
-1.679787674476644621e-02,4.119498862572110176e-02,-1.340287664068427233e-02
-5.262216922659368468e-02,2.324354010437906445e-02,-1.887059947445468913e-02
6.937147452269971926e-02,-1.943044255275444901e-02,-3.073128394706003616e-02
3.696989568061319342e-02,-1.190006103011933408e-02,4.811507099415181926e-02
6.039001175067544580e-02,7.890098431520546629e-03,-5.954487293256544717e-02
5.922296000875543198e-02,-1.965139539511523079e-02,-7.221145102080055167e-02
8.520563794617025399e-02,-1.650522913610480077e-02,-9.106224333255460990e-03
8.984476484313264760e-03,-7.215448161129751903e-02,-5.036095669759350912e-02
2.897119787673918534e-02,1.342647176108091416e-02,7.106614924349489992e-02
-1.131636100488459251e-01,-4.029520628512415353e-02,-5.076967304666264030e-02
4.041876407597202320e-02,1.274040781891393886e-02,-2.962584287967838514e-02
5.164538943058785692e-02,3.649012785517372591e-03,5.168018971214149168e-04
-8.397170905665570992e-03,5.258513123463465916e-02,-3.050240706226099718e-02
1.516389405705913067e-02,8.032738202778560987e-02,2.560930044771252568e-03
-3.247219413628128250e-03,-1.451278837210554645e-02,-5.923393491874645589e-02
-9.999155806189577791e-03,-4.044979822084442123e-02,1.052425424523020618e-02
8.479051772795226719e-03,8.078368797139197366e-02,-2.315773833282639901e-02
2.069292265425183228e-02,-2.292013867352694564e-02,-4.906889732227087339e-03
-3.491246639067553670e-02,5.111741275819540326e-03,-2.656264785616173699e-02
1.581516585266894148e-02,9.120913381770021089e-02,2.199214133383604539e-02
-7.953089569801674585e-03,2.889130594173938693e-02,2.080869588935902251e-02
2.790346913716822835e-02,-4.166037163594681070e-02,-6.540810968911719286e-03
3.436551406518025681e-02,1.006378625711103376e-02,-1.556155704670320224e-02
2.667115097091482534e-02,3.017416771810417508e-02,-5.385177652586570218e-02
-7.335419552711150426e-03,3.965821638959183409e-02,-6.621072243387428335e-02
3.041630688805892560e-03,4.446515697306104714e-02,-4.623281079779416325e-02
2.848104054795327911e-02,-8.809055411641135772e-03,1.147322487361630561e-01
4.028444371803324708e-02,2.696214479498635838e-02,1.255928843375447510e-02
1.212377404840047669e-02,4.338608740293513344e-02,5.396926888893616159e-02
-2.143336261239464635e-02,4.810692939059221795e-02,3.218555241323316218e-02
2.727098334220367723e-02,-5.721489778182477920e-02,1.238922264253360973e-02
6.864654166169235905e-02,3.204672812549200223e-02,6.105402410270835759e-03
3.439835327711837643e-02,3.034877501376772452e-02,6.670461180608681928e-02
-2.222667377308844283e-02,-6.710286288442346425e-02,2.193959402919264112e-02
4.029441059242955259e-02,6.316664627800763765e-02,9.120131075955188737e-02
-7.542635084322553418e-02,-7.448859659680785728e-02,-1.002260085817662377e-01
-6.618090541303432717e-02,-2.980739803483965430e-02,-8.184017994912719945e-03
1.023827900705579219e-01,-6.265326471035871647e-02,4.657058209468774301e-02
-2.317427624348201987e-02,4.235945230944471868e-02,5.302206947046938373e-02
6.029821295208415144e-02,-8.247213379552106524e-03,-3.803533161203211110e-02
7.080061233016969775e-03,-1.855595118323336186e-03,4.474289803279623418e-02
-4.283421843421962583e-02,2.430001204930425443e-02,2.304550318633128217e-02
1.881669469317881135e-02,5.219191000857806642e-03,-2.045217185120541074e-03
5.353586596022018654e-03,1.115067600380025697e-02,-5.938677509300788887e-02
3.516712852615544449e-02,-9.778623496374158619e-02,6.193393746098561914e-02
-5.965187151427752549e-02,1.151703665237597922e-02,2.025336096987907786e-02
7.906578234143310513e-02,6.932426022395453413e-02,-1.432131225716971011e-02
-2.740226468642321250e-02,5.785458547283306614e-03,-2.372851222828566836e-02
-2.643613758460713892e-02,1.669316600868214415e-02,1.082562104888641213e-01
4.804237175688073902e-02,5.684920130133366140e-02,2.046395705515019828e-02
-6.489001372433046526e-03,5.118734659250398500e-02,-1.949171354761316047e-02
-5.057273759524338885e-02,-2.550401943110290615e-02,1.458137866965477335e-02
4.398503971542878227e-02,-8.735113844983239057e-04,7.415033577050328395e-02
3.317683666562343953e-02,4.317851173298030421e-02,2.971826658652573783e-02
1.380878286903475249e-02,-1.125303082454657058e-02,5.082328328419336710e-02
-2.758314365017623324e-02,1.241726050093423968e-02,7.120661274433033594e-02
-5.976844517852526045e-02,3.777357554667427203e-02,-7.946258056873076181e-02
6.120913698811644710e-02,6.834052338244553382e-02,2.545091504533667989e-02
-9.832276828426808959e-03,5.158904892157747946e-02,-1.146920973123897926e-03
-3.448085111983001383e-02,-2.552158731713309939e-02,-1.028440330921715287e-02
6.776757660194025756e-02,5.295697659221889481e-02,-9.944579225540672862e-02
5.852995415522412731e-02,5.546621872567508715e-02,-2.117776890193290643e-02
7.208402129458792162e-02,6.054497713929213321e-02,-1.269115413487504566e-03
