accel_x (m/s^2),accel_y (m/s^2),accel_z (m/s^2)
-2.361576591433555989e-03,3.895480029137711984e-06,-9.808701205969251546e+00
3.358260382459484720e-03,-1.048598804180032873e-03,-9.791538529469089980e+00
-8.232898150410242200e-03,1.326772803654245950e-03,-9.794677063474344081e+00
5.385430739480348561e-03,-4.986401629891221328e-03,-9.794166148681524575e+00
2.118234759113713818e-03,-4.920884041038787321e-03,-9.797692588886251386e+00
-8.854081182929637124e-04,1.823742850391457497e-03,-9.791293782686519620e+00
6.822079039843650071e-03,-3.763765464569293921e-04,-9.792006980431086305e+00
7.511044032695428536e-03,-9.462297260543657551e-04,-9.794433906652660227e+00
4.475687502278858157e-03,7.528458085116221388e-03,-9.800245356621278603e+00
-1.522329408398925788e-03,-4.910686606320289159e-03,-9.791731080185853031e+00
-2.724988501388590605e-03,-2.092950663237435997e-03,-9.793708543029479685e+00
-8.198931477524747026e-05,-3.570388845731030207e-03,-9.797588979766917561e+00
-7.993821672905776152e-03,-6.152152738559565209e-03,-9.791668642881003137e+00
-2.790053333949261711e-03,-1.557123792801261807e-03,-9.801311381620637420e+00
-1.604596936403564949e-03,-2.280823776182718757e-03,-9.799823480017082034e+00
4.059340830271472057e-03,-7.382277042297911290e-03,-9.788867505101119804e+00
1.434267724087534860e-03,-2.425576302409447344e-03,-9.798854330536148183e+00
2.590719316453100277e-03,-2.749524048178950998e-03,-9.799032845142225057e+00
-1.315404210861810920e-03,-1.365763027545202320e-03,-9.792921121994085709e+00
-3.303157042618907677e-03,-3.611496907054154073e-03,-9.804337307240523103e+00
-4.501491105681693257e-03,-7.682728312415602716e-03,-9.791653142815340161e+00
3.056698124948800926e-03,5.833448216478621245e-03,-9.797465720256139932e+00
-9.088389200539355190e-04,3.521562446834919542e-03,-9.788451620858856117e+00
1.133936679643357971e-03,-5.631815377406474213e-03,-9.786647633326545304e+00
-1.499960705116150633e-03,-6.385806213337226738e-04,-9.797319474825231467e+00
-1.513189669870534763e-03,-3.476257084418230611e-03,-9.787235201286266673e+00
2.812029167448229072e-03,3.128620621147134954e-03,-9.791120785259408876e+00
4.543622939703753703e-04,-4.472516604208496768e-03,-9.800199168613172418e+00
8.377546354658427230e-04,7.893826721837284011e-03,-9.790741279907598127e+00
-4.772452263683907227e-04,7.349740355842989629e-04,-9.789354550513079900e+00
1.307206532014831921e-03,-1.341904745478173433e-03,-9.805845687076308437e+00
-7.581493382242417318e-03,4.096292768829267253e-03,-9.799288471907896536e+00
-9.898730328025724320e-03,3.867054426325493982e-03,-9.801336487419101573e+00
-3.736976539311802933e-04,3.299028353440413945e-03,-9.791014319458781756e+00
1.596525231428272927e-03,-2.542659608664608797e-03,-9.796301787366253677e+00
3.285720849576113239e-03,3.016880607459495461e-03,-9.794882725193589934e+00
-2.499404097524036798e-03,-4.502068561666777019e-03,-9.791292801136412649e+00
3.059878559428021519e-03,6.073131484344067299e-03,-9.799952456470442996e+00
-6.342611029761928984e-04,-1.066508959850448772e-03,-9.797052784388668556e+00
2.850898017005398105e-04,-6.397478442831370810e-05,-9.794139625333096788e+00
1.014872302784707719e-02,6.231811735533022588e-04,-9.794470531839039040e+00
3.001515911297811257e-03,6.949075907762211624e-03,-9.806952846468430351e+00
4.184658965155279436e-03,-3.732650736707614518e-04,-9.792456909534669407e+00
2.877697852702589335e-03,-2.854551116809290849e-03,-9.794709071644527754e+00
3.290103343245720643e-04,-1.205273989282218839e-04,-9.792303282791396057e+00
-5.509111553935004332e-03,5.760829559071282621e-03,-9.799564060818942934e+00
-2.610735133621359949e-03,3.454112736966821404e-03,-9.793890654963639975e+00
-7.596349159487592907e-03,7.131672114857580619e-04,-9.795117458301689339e+00
-5.221019407347842443e-03,-3.308941842379555139e-03,-9.806718000580703531e+00
2.111979528468686286e-03,-1.057005886337184127e-02,-9.796235411058765052e+00
-5.684139471080269790e-03,-9.242651569074498627e-03,-9.793497141750950874e+00
3.502519420723531289e-05,9.169951698154073585e-03,-9.787132740466404357e+00
-1.136709487452289107e-03,7.152561486721155772e-04,-9.797293378764376115e+00
-1.058923894956352108e-03,-3.295792256540646878e-03,-9.798703337001368752e+00
6.567457117888261288e-03,-4.314253247110837533e-03,-9.785510128092536064e+00
-5.043666555911261069e-03,-4.744543851331355609e-03,-9.799482255342830683e+00
-3.244004447744717589e-03,9.656693562782574930e-03,-9.801699303178166289e+00
-6.619733038091787144e-04,-2.603394482461852347e-04,-9.792654650841461361e+00
-8.337140177938025037e-04,-3.888004408539620128e-03,-9.801668924246284220e+00
4.851432802915704983e-04,7.168416782097145230e-03,-9.789068990544555149e+00
3.581663522704546434e-03,-3.024216818095855526e-03,-9.797739625961083831e+00
1.030942337106436268e-03,-7.228262325687389439e-03,-9.796278749236597250e+00
1.995173498519169780e-03,3.896836801930327575e-03,-9.793581802917733725e+00
6.178154407568177062e-03,4.512312034688198805e-04,-9.802300997446073083e+00
-5.944970788592144652e-03,-8.244902942999503270e-03,-9.798765781471287184e+00
-3.364936793534462761e-03,2.486188588498002353e-03,-9.795104267509815443e+00
1.148736801887060470e-03,-6.898477867530878813e-03,-9.793698526182595288e+00
-1.885436863959728728e-03,2.103236703063460396e-03,-9.795901750021039689e+00
2.974813625199976188e-03,-3.367449602288472357e-03,-9.784730831289355280e+00
-3.464238484996901707e-03,-5.591351958085486211e-04,-9.795630373023506365e+00
-2.821500777221124055e-03,-6.416748424883111229e-03,-9.788493640545892660e+00
-3.925289876391657370e-03,7.203065056414980141e-03,-9.798269320789925629e+00
-1.761273251604165719e-03,-4.423362257077000440e-03,-9.796376204391339826e+00
1.888525001742145330e-03,3.008056853542378541e-03,-9.794152016750185652e+00
-1.262994183817676985e-04,2.814296810593100440e-03,-9.795751595003004297e+00
-3.075538863254092601e-06,-4.344642944924983867e-03,-9.792353217770696006e+00
-1.589542209798532491e-03,1.949311505692916807e-03,-9.792193676563636373e+00
1.128193980719276006e-02,1.685586861613411463e-04,-9.802302142981718092e+00
1.068868423069496525e-02,-6.962940306976414702e-03,-9.790361121002398193e+00
2.595608198159669346e-03,-3.171792361012614435e-03,-9.798586668358810314e+00
4.165239944563576928e-03,-3.667028615002835244e-03,-9.791825196635839390e+00
3.352759819018727699e-03,6.500298850716425964e-03,-9.797952691087607136e+00
-4.566199822417299145e-04,-5.526656444418341120e-03,-9.790360695469576768e+00
-4.811074216090046284e-03,1.937764831600820347e-04,-9.795496367531031368e+00
-4.491298008667966857e-03,3.391553471476339583e-03,-9.806771616803793279e+00
6.222254003520517190e-03,-2.937058474660955709e-05,-9.798237222067248453e+00
4.914236282322431704e-03,-2.786890596668390677e-03,-9.791273299379019690e+00
-5.906800242832432359e-03,-9.454897850891172927e-04,-9.791940812319607446e+00
1.009195548137884098e-02,5.121868682875505181e-03,-9.802374366247560644e+00
-3.178104837603995016e-03,6.264450625261315346e-03,-9.794658913395446476e+00
-7.976453682150648136e-03,3.127425732166514566e-03,-9.799450819469889495e+00
-7.112883100125508978e-03,-2.739959752222644995e-03,-9.792658759098365806e+00
-1.027011064695536888e-03,3.898153934831958493e-04,-9.802025050134748341e+00
3.629817283752243082e-03,-5.802732461841650542e-03,-9.792292484032220301e+00
3.155669850598406974e-04,1.819290521261866887e-03,-9.796662859313187255e+00
-4.984771472818693740e-03,-4.426561375687964976e-03,-9.789141896761723416e+00
-6.875485107666627974e-03,6.140699913546752466e-03,-9.791605444492335053e+00
2.107003583806514070e-03,4.138045071535635406e-04,-9.788760774138653531e+00
1.227749742204785463e-03,-1.468890055952968426e-03,-9.793336523896977397e+00
2.030567789794029705e-03,-1.813732222593316150e-03,-9.799654584393721279e+00
-2.013304672991528873e-03,-1.433605731390598381e-02,-9.792648868631143699e+00
5.571040718406495293e-04,2.264464714741111669e-03,-9.792899746603668021e+00
2.520136745039101237e-03,1.337963149295048546e-02,-9.799742865470788544e+00
5.975674066485631500e-03,-6.984369535641966366e-03,-9.797646094189429888e+00
2.330069271083724195e-03,2.436342149419560253e-03,-9.788945519955872143e+00
1.870884148560408291e-03,-4.600182184548470658e-03,-9.794061989724765382e+00
-7.034155682855309892e-03,-1.090726683450481517e-03,-9.795882087503494873e+00
5.954229508042178758e-03,6.050509224303638085e-03,-9.792899437279052322e+00
1.725055801279965851e-03,-5.547681958457724265e-03,-9.792883474157255463e+00
1.456706684046158362e-03,9.311167982033272811e-03,-9.796054185876371889e+00
3.774891575798534991e-03,-4.173136142680022344e-03,-9.785865147049261026e+00
-5.226653058616478366e-03,4.214138093765510632e-05,-9.792044819099595898e+00
7.325492429099808057e-03,-8.836687548202196499e-03,-9.794894777496233829e+00
2.478894240043839989e-03,-4.569925412424562239e-03,-9.793796460278690219e+00
2.802638448308926965e-03,3.603178230370270886e-03,-9.800955108327915610e+00
-8.375376178060526741e-03,-1.121409478599019738e-02,-9.800604026173852290e+00
-9.688132383850510745e-04,4.758407034541589078e-04,-9.788184016581487512e+00
-3.679439377294771007e-03,-2.700820040266292514e-03,-9.796571482568452893e+00
-7.222638473645581932e-04,7.569685526048230192e-04,-9.796541062052634530e+00
1.048406923974428399e-04,5.598661541475889736e-03,-9.803510342665850530e+00
-8.606626618467755341e-03,1.004958436400057390e-03,-9.791721133559033063e+00
2.825384453434912351e-04,-6.374929031926762982e-03,-9.796028417386525078e+00
1.240244127420988239e-02,3.531513561223630516e-03,-9.792084199102623288e+00
6.320390519431999532e-03,-2.841861032559481800e-03,-9.788187804178582141e+00
-4.529005027461845308e-03,2.201087090821316622e-03,-9.796380151467868558e+00
-1.592865139636398747e-03,4.728142023012632013e-03,-9.798894003014689602e+00
5.812136955188540108e-03,6.531848863145010148e-03,-9.800829556196275050e+00
7.431953458112872547e-04,-1.949328685985786142e-03,-9.800177698531710391e+00
6.602056611342689389e-04,4.781682304310639828e-03,-9.786662834842378089e+00
-1.643111170981255897e-03,-3.713861780179008362e-03,-9.788387276586961505e+00
1.457293647117000632e-04,-3.558583262746330914e-03,-9.782125644637506667e+00
3.561753300857432684e-03,-6.657211259603758313e-03,-9.795361307738620127e+00
-3.129119132495831665e-03,-6.734843211686833767e-03,-9.795625551923626162e+00
3.873577888844393063e-03,-1.442768390958629058e-03,-9.797954442604483560e+00
-8.707794252806841037e-03,-3.117797182797909031e-03,-9.797050475845173523e+00
-1.885597601736228044e-03,3.212830397051276259e-03,-9.800151248439037843e+00
6.937496648999620999e-03,1.928627738935181739e-03,-9.796175540397783266e+00
6.516378171591116070e-03,3.801286472260998611e-03,-9.798053911622600864e+00
-7.193363432549712121e-04,-1.902893951679935280e-03,-9.801716957563597177e+00
4.465422353091400877e-03,-8.758320388986748622e-04,-9.792013700991457625e+00
4.710419454138753056e-03,5.732546456510202726e-03,-9.793007676449523302e+00
-4.557934368753609709e-03,1.577823904943579172e-03,-9.795941961917320029e+00
-2.270362327756424593e-03,6.117499969813321864e-03,-9.798567817939137115e+00
2.100698734271297646e-03,5.077837698953761164e-03,-9.794062017739666004e+00
5.857420831303753600e-03,-1.967526095726998200e-03,-9.799463662684356535e+00
-6.104693638010252714e-03,-1.209511112106200761e-03,-9.784148277868771615e+00
1.260840265326744133e-03,-1.037818837842884208e-02,-9.791995263398993288e+00
1.807638427891896261e-03,-7.450468409666838668e-03,-9.792693267315772943e+00
-1.572809361758777981e-03,3.016107904696274135e-03,-9.806353978887718981e+00
4.321428316649365137e-03,7.402912962125595547e-03,-9.795692085039675590e+00
-1.171641242430898231e-03,2.405745919584690012e-03,-9.798107079371362715e+00
2.405495301375174932e-04,-1.182210187758417179e-02,-9.786978739934331983e+00
-2.492340134081819439e-03,-4.322235529177406981e-04,-9.788042752528477664e+00
8.472998981077653827e-03,-2.653692134636121292e-03,-9.795107839151105722e+00
-3.790015449207770250e-03,2.286222817944474385e-03,-9.791825806807599619e+00
-7.193414658638660510e-03,-3.531958775976143557e-03,-9.786235151734219428e+00
3.332964665541771326e-03,4.293380260720649350e-03,-9.797701602421346578e+00
1.719169895017644625e-03,-1.107267238230621531e-03,-9.792594062000535615e+00
1.191606852161808568e-03,-5.677896481204810792e-04,-9.798204127191372237e+00
-2.137893989684592176e-03,2.311135740891640325e-03,-9.801196118311906957e+00
2.525578541821738628e-03,-5.153449125862869656e-03,-9.789832249611574611e+00
4.031343731141409301e-03,1.662246236270312812e-04,-9.795428487900213810e+00
3.500914630575162334e-03,-4.469625972269863218e-03,-9.798945086027911699e+00
3.928227433335605527e-03,-4.522565548951870164e-03,-9.792093299135094853e+00
-1.410047432427560983e-04,-1.029139712536305401e-02,-9.790047505606908729e+00
-3.596611648817796790e-03,-1.049915387436537286e-03,-9.792701132548339515e+00
4.606161052703234247e-03,-9.826826407237131480e-03,-9.794060991198485056e+00
5.770370953585181664e-03,-3.522797078592822609e-03,-9.794744601705881237e+00
-7.285318487486161509e-03,1.535146740350280033e-03,-9.796813875065348398e+00
-2.393961968095099750e-03,-3.042891504172623180e-03,-9.788405092639319349e+00
-2.905257636572022156e-03,1.486508581175184033e-03,-9.790873127168959300e+00
5.668919961477050448e-03,2.204521546537933918e-03,-9.799242940358434240e+00
-1.573906968990955316e-03,-3.047165305218652552e-03,-9.802794892885616562e+00
-8.322651642230340444e-03,-7.532902138399352049e-03,-9.788686044866508951e+00
-1.621193077803804354e-03,-1.595020539270865321e-03,-9.799571062232077523e+00
-4.332325650025864450e-03,3.759090487519825812e-03,-9.788879429624904205e+00
-1.135692210062936441e-03,-8.464594020161012380e-03,-9.794841892876654299e+00
3.974283552591529288e-03,-6.179859329883195633e-03,-9.802871965383266328e+00
6.371713684371496308e-03,3.099875923112632541e-03,-9.789005744601153580e+00
3.159974119606913639e-03,-3.318794877684840515e-03,-9.794402213110137367e+00
-1.863288632380449708e-03,-6.279038646399368734e-04,-9.787187198672814503e+00
-3.968349407146709064e-03,-9.363959174440986870e-04,-9.794529229916793867e+00
-6.652805968776345086e-03,-3.659355956394970584e-03,-9.805546295325910933e+00
-1.434196442048348875e-02,6.644489867462160864e-04,-9.792176201094271448e+00
-1.284548058604189844e-02,-3.889226755694350814e-03,-9.792003477206172590e+00
-4.484252567911459382e-03,-2.237959702447680187e-03,-9.796701837987889405e+00
1.495527920099848059e-03,4.791455846454804705e-03,-9.789291555615712070e+00
3.459293028977888668e-03,-8.502996650584218521e-05,-9.801193920939544668e+00
2.170442588102936433e-03,3.131611470939062343e-05,-9.794748740468760317e+00
-1.182980480835706463e-03,1.011658675067367372e-03,-9.791703407360309086e+00
4.431679870110031769e-03,-6.462644075433088622e-03,-9.790662984402130675e+00
-6.071864905910336063e-03,4.522417837520255335e-03,-9.792422144441591314e+00
5.276722362377109406e-03,-5.184026516021109088e-03,-9.796412933840949577e+00
-2.714366622873804358e-03,-6.422621815468551078e-03,-9.788736849469326984e+00
-5.602667584461303550e-04,2.285911116872177580e-03,-9.795248347313062709e+00
2.599648329270089035e-03,-5.869885285539525217e-03,-9.787871667341898174e+00
1.918633519221969340e-03,-1.155862204319357562e-03,-9.799545829975615518e+00
2.775159665247387258e-03,-2.051782292196163357e-03,-9.796817499324014022e+00
1.595962745973780609e-03,-2.090300919397363160e-03,-9.793321790708308328e+00
-4.120013250243656153e-03,-1.707239587709161220e-03,-9.797202533879925568e+00
-3.906863312874419951e-03,-7.671273662248798923e-05,-9.795948972876479033e+00
5.563842128063139353e-03,-3.674733414532082611e-03,-9.795812349582199374e+00
3.516668328589091837e-03,-6.262363076983137270e-05,-9.786379398616890768e+00
-1.398036257279532330e-04,-6.578285674872255857e-03,-9.799352546616200144e+00
4.735136799241573997e-03,-1.427053162774916985e-03,-9.802394266107066656e+00
5.341833735582726499e-03,-2.922229513443656661e-03,-9.801068635832731246e+00
-5.515068301203128985e-03,8.640394466401003781e-03,-9.789867325419448818e+00
-4.308149466229159279e-03,-3.092830144270488323e-03,-9.793206906441238146e+00
-3.452259014059743010e-03,-4.589469582406887900e-04,-9.796832713283864180e+00
-7.100856578365522150e-03,3.780852574261839381e-03,-9.791027699930577199e+00
-8.316928275616412847e-03,-1.254445775272821934e-03,-9.799686500834136282e+00
2.574794002700246318e-03,-2.663537989372194957e-03,-9.795136082301482361e+00
7.638232827456866054e-03,-1.056303259059000570e-03,-9.795207906597056535e+00
4.594141755396391642e-03,2.447116835125711688e-03,-9.793755664818453610e+00
-1.031159937588342276e-03,-7.727638062900087264e-03,-9.791252199266136103e+00
-2.118345318485509443e-03,-1.062415230060845955e-02,-9.795942504955970520e+00
8.027806882660970533e-03,7.594196054589755565e-03,-9.795525195752688319e+00
8.157125831101540332e-04,-7.896730990167029991e-04,-9.795312763822575874e+00
4.225287460070183652e-03,-1.926280475355555966e-03,-9.804301623016584699e+00
1.317884995314361814e-03,1.324597160367187903e-03,-9.794195663608324054e+00
-4.026408766500605592e-03,-5.466873663936252029e-03,-9.790204305208828117e+00
8.322585495269841163e-03,2.262702357604021164e-03,-9.796381374504194994e+00
9.427413787122675788e-04,-2.926166011613911232e-03,-9.793839741491090933e+00
-1.581811078652721296e-04,4.017524681934006190e-04,-9.794765449819603731e+00
5.239840688247188356e-03,-3.567334562097364443e-03,-9.791708884114246558e+00
-4.048594944962273338e-03,1.647864839752801337e-03,-9.798265986294785179e+00
4.571270808105707892e-03,-5.377445990197264256e-03,-9.794621837076409321e+00
-3.889810952633525071e-03,-1.140011764203355564e-03,-9.794628629459404934e+00
6.519611391334796842e-03,-1.823745880094230012e-03,-9.803919302622805532e+00
-1.839069161260116839e-03,1.959315735637390081e-03,-9.794595530693918306e+00
-3.254287343279097661e-03,-8.628621374374863956e-03,-9.789372190803200979e+00
3.276150536899453958e-03,-5.041274808315038269e-03,-9.793396660538199683e+00
-5.192695458846766782e-03,6.374401014166344338e-03,-9.801170677084652283e+00
9.032489755431191009e-04,-1.231258838302158945e-02,-9.792682725323208714e+00
1.532889036245167411e-03,-3.723422840387176184e-03,-9.794884987845611235e+00
-7.469443671734523130e-03,-6.974728192577268719e-03,-9.792340963728026537e+00
1.568955577942547901e-03,-1.878294046510591356e-03,-9.797594503119054110e+00
-4.249951564593495296e-03,2.463019443025589623e-03,-9.804959276424611403e+00
8.964298423576594690e-03,-6.151470536846719017e-03,-9.797554286866848372e+00
-8.821581478959811262e-03,-4.440561678833386517e-04,-9.804530961903257236e+00
-1.400054971434279991e-03,3.477815256527398702e-03,-9.794560140345975441e+00
6.284746606780438304e-03,3.456211810668205139e-03,-9.799325029980861856e+00
4.909306984236091499e-03,-3.369085583982317327e-03,-9.795941046668314556e+00
2.838045750225976480e-04,2.465812829037950654e-03,-9.797853978793872542e+00
-1.963783840901547374e-03,-6.089280081789906311e-03,-9.802695168358008360e+00
-1.034965033316439034e-02,1.566747275819351144e-03,-9.799555533199272972e+00
1.535282210720663801e-03,3.662633913354035407e-03,-9.794527687763002533e+00
-4.425995593333128565e-03,2.576634824292051672e-03,-9.796059195586261481e+00
1.076405681454150600e-03,1.559125567177646610e-03,-9.795595811804787445e+00
4.404417525040493276e-04,-3.368215707462921069e-03,-9.794944374818149058e+00
-7.398126316634810263e-04,-2.666155350272347065e-03,-9.800006567737725049e+00
-4.098884766178469315e-03,2.336167503444946426e-03,-9.790291440765081177e+00
1.831581774595528005e-03,2.808498446540226654e-03,-9.787322531038476825e+00
-7.935978470814973595e-03,1.748034558164552861e-03,-9.793746832059277097e+00
-6.556562039837907432e-03,-1.835991530709105710e-03,-9.804501075547056743e+00
2.132580304587016872e-03,1.476030330286891724e-03,-9.796163143673354057e+00
-9.935064768830000059e-04,6.945516286362870585e-03,-9.791405122091815016e+00
2.640292780601911915e-03,4.587458739505209659e-03,-9.794234047995805881e+00
-3.639542795250066270e-03,-8.086805863875015654e-03,-9.792543802730341085e+00
1.684672763255174463e-03,4.182066927422838087e-03,-9.788994324502141353e+00
-4.553904288985854455e-03,2.315781921766109884e-03,-9.792033581193589242e+00
2.818490755459850377e-03,7.087720835440078490e-04,-9.789225708387224500e+00
-4.636009346676646554e-03,7.829060489534349354e-04,-9.789735210051579983e+00
-5.574117105444154237e-03,5.671635922325292921e-03,-9.796418707642992274e+00
4.149378030518579424e-03,2.449647308490440767e-03,-9.796299624943927142e+00
6.003864473771775533e-03,-9.766020488802470978e-03,-9.795089157573663385e+00
-3.063606560377105255e-04,9.246188613246683272e-03,-9.795112748024076055e+00
4.551807947471519372e-03,-4.173464138732854191e-03,-9.795765497581923498e+00
1.770259513141540049e-04,-5.553826326599588074e-03,-9.790019954063742702e+00
-9.664338887940888967e-03,-3.509377645628266283e-04,-9.801521386522887624e+00
-5.396954378590063627e-03,-1.699350092750504188e-03,-9.800698538459293729e+00
-2.151394263630346769e-03,-2.515913705763777979e-03,-9.790197832854532933e+00
-7.012001277508212935e-03,-4.422972004350755708e-03,-9.798631105717985790e+00
-3.547802697145912253e-03,-7.691483842864832443e-03,-9.808607483162777640e+00
6.474944294763975219e-03,2.762580032475073135e-03,-9.788096760341785441e+00
7.107288369990608264e-03,-3.806125252993202823e-03,-9.803589967849131170e+00
8.025317403175702587e-04,4.879155435079937826e-03,-9.803822387733520216e+00
-6.068083924968863813e-03,-5.221897583244500089e-03,-9.793383123214287167e+00
1.322858604979617941e-03,5.135753934110059982e-03,-9.791168982907882068e+00
5.149352542647088991e-03,1.836612827835911853e-03,-9.794658647650106076e+00
-1.588938098944306116e-03,-7.567612466598743837e-04,-9.794941295550783522e+00
-7.586718859529331498e-03,-5.518418140056172150e-03,-9.795172865528943618e+00
-1.091704247751097354e-02,-5.617645673537687533e-03,-9.796549007933899489e+00
4.326331375944356475e-03,3.725516925177583746e-03,-9.788860398739428703e+00
2.528000452565363088e-03,-4.745972190669833432e-03,-9.804790361156451084e+00
1.738711839127579043e-03,1.672762437901019862e-04,-9.799325266842407345e+00
4.016721548823668810e-03,-6.460006041808169031e-04,-9.789654684330376000e+00
-1.146934982988510876e-02,-4.083534502828218074e-03,-9.797586806682536675e+00
1.416572741967583784e-03,-6.570362936777729770e-03,-9.791671541547342983e+00
-1.292348236970201729e-03,-1.046737304479708475e-02,-9.807242075003594906e+00
4.104595043433430408e-03,-3.763388275490883901e-03,-9.782861326021778936e+00
-3.175959816886976799e-03,2.159830518308212058e-03,-9.797497180490420732e+00
-9.386913043702913018e-04,7.927499517286846348e-03,-9.794204443327153342e+00
3.459798218848475406e-03,2.921341256862026049e-03,-9.790736930271432215e+00
3.445295732349138926e-03,1.879628611395225621e-03,-9.792546780304187237e+00
-6.394762825908904651e-03,2.718544182119799098e-03,-9.798556083722086640e+00
-1.026416837041460714e-03,4.180653186920878402e-03,-9.790148326868319373e+00
5.971436499550513040e-03,6.896039370640278526e-03,-9.796854309695493868e+00
-7.327573536799308548e-03,7.638931403741259889e-03,-9.796556781186513518e+00
2.860358027149595850e-03,-9.228384105185191352e-03,-9.797548701135454507e+00
4.588444764267893229e-04,-7.972423017609732432e-03,-9.793300488452057806e+00
8.829375211130819842e-03,2.395584807152710202e-03,-9.790195574516292965e+00
-3.357220942340896890e-03,-2.954484981455663762e-04,-9.795522102162616207e+00
9.604697067941823742e-06,-3.490287745896899704e-03,-9.794723864507858480e+00
7.925064956691698845e-03,8.428596108344937193e-03,-9.804322683519117732e+00
9.006603090970170811e-03,-2.726233339403144693e-03,-9.792409448388852411e+00
-6.265792985489425588e-04,5.708490325312485375e-03,-9.800087831504699309e+00
-2.484396089464236193e-03,-1.179260821473842626e-03,-9.804580404531847648e+00
1.764414952539892839e-03,-4.651610684949472607e-03,-9.793819188143768173e+00
7.264358232872456834e-03,4.847882623649929848e-03,-9.793618469970398976e+00
5.917366785163117975e-03,-4.293073673810162728e-03,-9.793481341968030662e+00
4.379778363473738924e-03,-1.982355925452288468e-03,-9.789494203104480263e+00
2.628224153600801100e-03,2.588044622621056556e-03,-9.786943531573141897e+00
-2.299654516100637855e-03,-1.119117667190425505e-02,-9.792332049622078927e+00
-2.719337798807332403e-03,-4.825589559120519768e-03,-9.794018568305713046e+00
7.574306420561522507e-03,3.969662553737396751e-03,-9.799323872413554071e+00
-5.435348492470545682e-03,4.373319784456587006e-03,-9.800975146223034784e+00
4.940119500961363298e-03,-2.535166292309360900e-03,-9.797290012273629500e+00
-9.358053191190499054e-03,-1.525820169144039267e-03,-9.789936106491794021e+00
-1.048463406815457102e-03,5.702855329227232879e-03,-9.794384745404984827e+00
-2.830745350711056946e-03,-6.786534671682446090e-03,-9.807543162916598334e+00
-3.547697974482461568e-03,1.258647942511436409e-04,-9.801887492411763603e+00
-7.754170115676951858e-03,-3.812373984558586545e-03,-9.797024588640883991e+00
6.798556885186199817e-04,6.637089521243098693e-03,-9.794189074094857617e+00
-1.895686304158781003e-03,4.145019228255242619e-03,-9.802608716226577812e+00
-8.291002171297117557e-03,6.216017463802188392e-03,-9.797788241600750681e+00
-6.754893174077967848e-03,-4.357501262066854932e-03,-9.785605483007097760e+00
-5.217906386990120958e-03,6.039079409585783841e-03,-9.795214218767679171e+00
-2.495270511909727668e-03,-1.272290734821737452e-03,-9.798077792116853146e+00
-4.279981475433124703e-03,-1.244440007812280119e-02,-9.791232559882017128e+00
6.498584872403651881e-03,-2.468290753415912711e-03,-9.806971065655091024e+00
5.875778145116221027e-03,1.560803304822516550e-03,-9.807036181913034056e+00
-8.501645272363229575e-03,2.332019029963340248e-03,-9.803720546571719652e+00
-3.307680336299111297e-03,-3.929526193339739860e-04,-9.796584858675378982e+00
-9.262558210146196180e-03,-7.629242668341405277e-03,-9.794097382112665784e+00
6.289577064571581777e-03,2.464998465393174448e-03,-9.793033893751731611e+00
-1.119261157145199671e-02,3.226440566967754987e-04,-9.798097956763042404e+00
9.959617526728171532e-04,-7.801234355470350410e-04,-9.792743997120989974e+00
-7.024234419291372315e-03,-4.705121081611909548e-03,-9.799942906205520998e+00
1.210133223320533115e-02,6.577875758795996911e-03,-9.795246120953223112e+00
2.657273263076510589e-03,-2.219000418906388796e-04,-9.789157961829682009e+00
-6.042835572336840988e-03,4.191782088299076184e-03,-9.791959009827186478e+00
5.693928810237123932e-03,1.707742348225045094e-03,-9.786911679659249685e+00
3.330387449251965681e-03,-3.228736389142697512e-03,-9.801267381591181049e+00
-2.122805780662363924e-03,-1.254618519147151579e-03,-9.796881123031456085e+00
7.937672196595609367e-03,-2.496522116792853317e-03,-9.801305056230377843e+00
-3.580448398801869530e-03,-3.487084073144417276e-03,-9.794369561864106899e+00
-3.993675353569783393e-04,-2.641481080980364118e-03,-9.787317775836706701e+00
-5.055734951498727127e-03,3.659928705729779529e-03,-9.798108895607464675e+00
6.705596510003485056e-04,1.276390435103584749e-03,-9.793457716046910733e+00
-8.231861879025713369e-03,5.225766951800228655e-03,-9.790516837158470764e+00
3.871576582179263402e-03,3.579984878371108084e-03,-9.793595190830227892e+00
-2.052714386112041833e-03,-2.561062636928690579e-03,-9.796127890756544332e+00
5.479769377001585985e-03,2.597164455169703474e-03,-9.801461277256228399e+00
-2.907304387597400234e-03,1.009104250441002215e-02,-9.794862480178165853e+00
-7.875977405132125048e-03,-2.679589821953097181e-03,-9.793856919128172578e+00
-7.279972295847871380e-03,-1.795293500341809973e-04,-9.789789738753619019e+00
1.633119830072833970e-03,5.355176029424381021e-03,-9.800125340731245416e+00
4.050282190678425841e-03,-1.529758857882457549e-03,-9.795023090318558445e+00
1.232236826118086968e-03,-1.215189223227694341e-03,-9.786154764114860072e+00
1.708310184422164545e-04,-1.605619623458390136e-04,-9.794098676371639556e+00
-7.015171758076345354e-03,7.169159103398000700e-03,-9.796600438116787046e+00
4.593447682078539117e-03,-6.701432864797345935e-03,-9.795166873812867436e+00
9.180304997540234685e-03,-1.259024725970424481e-03,-9.796304005147000282e+00
-7.092955751088609023e-04,-2.179139272595177410e-03,-9.797678111280793800e+00
9.225457876325737295e-04,2.138920195049685488e-03,-9.788154014715990670e+00
4.388069256220627698e-03,-4.933494199669246488e-03,-9.799240625211275812e+00
7.277230939329541216e-03,-4.342491556058420093e-04,-9.791767518986189245e+00
6.682098816421025433e-03,-5.184686105470468279e-03,-9.788847875115775921e+00
3.574712449866779534e-03,-2.904243483638944794e-03,-9.800283665451011927e+00
8.604288013032137736e-04,-3.421106339478138889e-03,-9.791522817577934745e+00
-3.650408345920322720e-03,5.841079545348775576e-03,-9.794338010370232439e+00
-7.027340150697986183e-03,5.204282113284798388e-03,-9.797535862369390003e+00
-4.055977186696695103e-03,8.744614252687674550e-04,-9.809859153326158321e+00
-3.140105803194894081e-03,2.320216276717593229e-03,-9.800053136403857224e+00
5.445538172439480865e-03,3.905944419927573786e-03,-9.796780799591573441e+00
-1.287648543740502237e-03,-2.328818322727944055e-03,-9.800376797027622544e+00
4.023052918824098455e-03,-4.208130114765087221e-03,-9.791797450736218877e+00
2.781466625210446148e-03,1.251753135499312705e-03,-9.794504988236942822e+00
-3.936023981852104260e-03,1.359209350595432571e-03,-9.794867617075517785e+00
1.099710226761397257e-02,-2.563695740968595024e-03,-9.797549219445473412e+00
1.191918131854211721e-03,2.561351307735593857e-03,-9.793592968114019470e+00
4.505235527278392618e-03,4.930608231423384315e-03,-9.794513451075921751e+00
-5.923666635925711570e-03,-2.206408923537674267e-03,-9.789313994153387100e+00
-3.503419180310177617e-03,-3.595856441880517125e-03,-9.793460507799895964e+00
-1.132031283827345663e-03,3.899922145760118062e-03,-9.792016870480482638e+00
-7.088238437040634762e-03,1.133538472305587776e-02,-9.786649528724979064e+00
2.434846412196869578e-03,-8.897478506343634019e-03,-9.791545908417189636e+00
1.121877770597003166e-02,6.339273443947080790e-03,-9.794242050914576225e+00
-3.155033086096710720e-03,-3.115400392386718544e-03,-9.797982855926948176e+00
9.609679850413182026e-03,-3.947176023306240775e-03,-9.790957416044790307e+00
2.027348294505096197e-04,-6.318204284748949254e-03,-9.795666377399571800e+00
2.492695174639876412e-03,8.801932063917465012e-04,-9.798196100229297656e+00
-3.002873247574542985e-03,1.998043161073146268e-04,-9.797403241502324889e+00
-3.229990071765722563e-03,-6.307733441019076123e-05,-9.797699924449963405e+00
4.264511883452353283e-03,3.117736758188324048e-03,-9.802970460592931090e+00
2.765067130546772136e-03,-5.127763211164836077e-03,-9.788745552732828870e+00
6.724570913545790691e-04,-5.213458611182109070e-03,-9.803504927508642552e+00
3.023894965126351728e-03,-1.122113979006491950e-02,-9.792393849941785078e+00
-9.497811426456166922e-04,-6.731400191197613528e-04,-9.805629733189499930e+00
2.425488152549312108e-03,1.931115569533663895e-03,-9.790720545261617502e+00
-3.247353797373670262e-04,-1.694172803206724521e-03,-9.794510313507574395e+00
4.011331262180992986e-03,-2.797871260026432629e-03,-9.806686600141617305e+00
5.200495787027165084e-03,3.270843586857002938e-03,-9.784779525538487732e+00
-1.646105083690586283e-03,-3.765217367933216402e-03,-9.794284942121532112e+00
1.078444065475545229e-02,2.083254508691396827e-03,-9.794541792853880935e+00
-2.570915308271018961e-03,3.115767012905008848e-03,-9.794638475568293146e+00
-5.368348993767420134e-03,4.836737218706754771e-03,-9.789769128928297093e+00
5.289337827720242899e-03,-2.774119771406271997e-03,-9.793379676613071183e+00
-1.489936856911697931e-03,8.143227248163650497e-04,-9.791537422948991320e+00
2.273681892917966182e-03,-5.315752396707865320e-03,-9.797150420759269451e+00
3.632348425946677756e-03,-1.048405753316327153e-03,-9.796598935084574578e+00
7.803081890579269958e-03,-4.406967597117496423e-03,-9.796083112345900901e+00
-1.772266588946910327e-03,-4.423310074218615912e-04,-9.803908221298330616e+00
-6.478165733567312068e-03,2.661992521645161706e-03,-9.796584814524328166e+00
9.110091456621631847e-03,1.122974265358650959e-03,-9.797441673029707587e+00
-2.954615924547288400e-03,1.008121183040608729e-02,-9.798847799829520255e+00
3.977339023649675842e-03,-2.547162380085914082e-03,-9.798580712448137220e+00
1.785769225803304642e-03,-1.256585794484077001e-03,-9.803626587976079776e+00
-1.217932001204324096e-04,3.360548836207049878e-03,-9.791384456438979811e+00
-6.399379540358260919e-03,5.218505276429925843e-04,-9.792914713551828854e+00
-4.886892288466021354e-03,2.212166356870986540e-03,-9.806368384631552360e+00
3.972553043000936340e-03,1.892530653551083384e-03,-9.796122294112448614e+00
3.489183376017851272e-03,5.272248709511788943e-03,-9.801260319996977444e+00
3.497503844562651048e-03,3.345063748997179932e-03,-9.799594588342971591e+00
5.235306491302791319e-03,7.178926538725855996e-03,-9.795410860817709064e+00
9.228200765277944084e-03,-4.755906442668512805e-03,-9.798087374629995239e+00
3.533506626774756288e-03,-3.224319447736006378e-04,-9.799384724354339937e+00
2.024914764724425331e-03,-1.642034038492630639e-03,-9.801301494899737676e+00
-8.977988751526123565e-03,-2.984613361850410422e-03,-9.801802630235645353e+00
9.059157328426175118e-04,-7.242657951979856491e-03,-9.799402914197619552e+00
-1.625355618053886701e-03,-2.589918922492929782e-03,-9.789715965279333076e+00
-8.809621999308719226e-03,2.274050425812239318e-03,-9.799948780449197372e+00
-3.035005808220045485e-03,-7.443381151454223077e-03,-9.785189989072069494e+00
2.924178832810067370e-03,2.611052314760302882e-03,-9.798377468459078088e+00
4.878355876847008214e-03,1.077672844470944219e-02,-9.796845655247153672e+00
2.753834726017468509e-03,-2.680078760747408445e-03,-9.797008118465246440e+00
-6.036093677760254357e-03,2.256912363458422020e-03,-9.788652915862396497e+00
2.045751193641879933e-04,-2.195692315965227029e-03,-9.802554442078394104e+00
-2.830283742901954207e-03,-4.230952859671631254e-03,-9.799453055216886810e+00
-3.774234020428157547e-04,3.266310336286090688e-03,-9.790081864458123562e+00
4.321569337237877312e-03,3.579053081974290212e-03,-9.786014314088507859e+00
-2.000724167056546713e-03,-6.849270411954319366e-04,-9.788002764150411039e+00
1.064059563392892463e-03,9.660169820106308952e-03,-9.801767619916079255e+00
4.945540241604776989e-03,-5.942275413467152344e-03,-9.794254823894794626e+00
-4.477020368677164276e-03,-3.508728491271674837e-03,-9.800522980932226957e+00
-6.557987092727624555e-04,-4.351037069502405007e-03,-9.798178236409901487e+00
-2.725683630043022974e-03,-5.853670302192196667e-03,-9.794249998866231266e+00
-2.057269510367842631e-03,1.216179120081729024e-03,-9.794294259768852484e+00
3.483826128481748441e-03,1.381768417900289042e-03,-9.801731378282498852e+00
1.955153273111910232e-05,-7.354436062597447844e-03,-9.793033238760077808e+00
-2.906073519632321883e-03,4.731951703907230113e-03,-9.790762055937342723e+00
2.106463242566868760e-03,6.289777753023109014e-03,-9.788967745876030691e+00
4.703379399017542793e-05,-3.992246209260159190e-03,-9.805936262756979716e+00
1.329701419766941232e-03,-6.784026669210687158e-03,-9.796631801423563601e+00
7.985442003491903529e-03,-7.186304450646938298e-03,-9.798074806047136320e+00
2.369969189133569031e-03,-1.184348751560857383e-03,-9.798456585689354625e+00
6.818701145737136697e-03,-3.157197681326513045e-03,-9.796222913616578154e+00
2.929934665124221248e-03,-5.558048610768556719e-03,-9.796112064185237500e+00
3.017632275928062643e-03,5.565545679822361249e-04,-9.802412722458621275e+00
4.892852009877865505e-03,4.334950810102738972e-03,-9.799835615203750905e+00
-1.065416726803257094e-02,-3.111993517174679348e-03,-9.794068302929577641e+00
-9.514195908147052164e-04,9.831918421688073603e-03,-9.793867549890569180e+00
-7.125692471040842926e-04,4.842669932575791730e-03,-9.795332673215588315e+00
4.696778502490430753e-03,3.129465862845661351e-03,-9.788650747343604408e+00
2.015424355950686496e-03,-6.546253677589046428e-04,-9.786747530790025351e+00
-5.387473847260891915e-03,3.469790405701135821e-03,-9.798777883941379940e+00
4.905464375999358390e-03,-2.400521660053724863e-03,-9.805542075170869509e+00
-6.205539372948185072e-04,5.666933872293538482e-03,-9.794715776793202267e+00
-5.037348436899364429e-03,1.287051308201534166e-03,-9.796141772643554901e+00
1.208884698205811006e-03,-1.026437832410701141e-02,-9.797055907284752507e+00
4.419634972456973863e-03,-6.605990786734651987e-04,-9.791083746390366827e+00
-1.570247002267032141e-03,-5.252737526101362506e-04,-9.796092581414278300e+00
2.397421735391587743e-03,1.284930191027513786e-03,-9.790621691106949243e+00
8.903156614081740930e-03,1.540243226493118915e-03,-9.797311147820545685e+00
6.322241523364385178e-04,-1.256243005922160275e-02,-9.791904270517189701e+00
3.649875565678927652e-03,-7.566503364409411965e-03,-9.785778826564275334e+00
5.023855172285407109e-03,-6.099009008106465873e-04,-9.793307821828408422e+00
1.072378259492328192e-02,-8.351664676693059189e-03,-9.796694957681618021e+00
1.420673265172109432e-03,2.644402155065413325e-03,-9.789591515944367828e+00
-7.383985354682787508e-03,9.687240447171883029e-05,-9.789083508154218904e+00
1.639778444674959987e-03,-5.238054322075555262e-03,-9.790471962559250230e+00
-1.553565301138763689e-03,4.581124056898569843e-03,-9.799431915645078206e+00
4.033626674732049104e-03,-7.528889731810881406e-03,-9.788888332103548251e+00
4.479941096946161473e-03,1.120682278837871991e-02,-9.804998617104049075e+00
-2.290655710961885666e-03,5.699226161515818026e-03,-9.793424681371993401e+00
-2.794893290830989616e-03,-6.399736149431657639e-03,-9.791015142598739729e+00
1.419486095961297253e-03,-3.699185934574315739e-03,-9.798325948073458136e+00
2.978107342177180490e-03,-5.624264058868445187e-03,-9.794617334712825141e+00
7.001834648845090686e-03,1.370438902569849670e-03,-9.798255215034130217e+00
-5.184010220537314285e-03,-3.679992779247714084e-03,-9.799468759704408782e+00
-5.348450825722353592e-03,-2.347684384618825993e-03,-9.789925696765685359e+00
-4.930159132132796822e-03,-2.123545961560798986e-03,-9.804457146324121908e+00
-5.511172758075212792e-03,3.913622176051104531e-03,-9.796122613091405640e+00
7.348453901798883197e-04,9.362054472933745847e-03,-9.780279623670203648e+00
-2.100080105078205514e-04,-5.700323246167347986e-03,-9.788768944099171421e+00
4.787087409360571248e-03,3.427492817932519757e-03,-9.796759706962157921e+00
2.847840676485705047e-04,3.091607849657642109e-03,-9.795749061756559684e+00
1.570732733823072434e-03,-3.966449411988652758e-03,-9.792229346247664168e+00
-2.861839440727150224e-03,1.478926975550847334e-03,-9.794018034783498194e+00
-6.250641030493785805e-03,4.900732112017607521e-03,-9.794963839834114339e+00
-6.835031008159946769e-03,-3.581472575829092349e-03,-9.782672545304931688e+00
-4.908836150192448511e-04,1.177965770312968579e-04,-9.797082296979555238e+00
-1.672647512127498808e-03,-3.730473707724426147e-03,-9.804336103280590464e+00
2.456303668635312983e-04,1.112473314063780515e-03,-9.796289249645623087e+00
-6.768468933732546718e-03,2.692465755328659434e-04,-9.792741074442483651e+00
-4.000083839595836195e-03,8.039621776823140803e-03,-9.803070661756766668e+00
4.585704888690323930e-03,-9.606312920556385557e-05,-9.792259143189754766e+00
3.411334199660549620e-03,-8.104844657148183029e-03,-9.801069623222268490e+00
9.692125083483016726e-03,-7.681078807768255967e-03,-9.791869715316508405e+00
-1.591701057599322067e-03,-4.988807061159311607e-03,-9.787584323593495839e+00
-8.771908986966831315e-03,1.820842635568526661e-03,-9.791755235863391249e+00
4.569327250066607810e-03,-1.051330432347651229e-02,-9.783206968464860154e+00
-1.778425210498069207e-03,-4.638169448479619907e-03,-9.792311000975377766e+00
5.896263717888575520e-03,5.697896271206926745e-03,-9.795545510427274394e+00
6.207572875130563245e-03,-1.358054650388907693e-04,-9.793977726209714518e+00
-9.778381608960286762e-04,-8.398161889252055146e-03,-9.790783076572020960e+00
3.082333190889084522e-03,-6.765942990120083628e-03,-9.791624230931638806e+00
-1.268687665485563904e-03,-6.380991118646275016e-03,-9.793204370967798056e+00
4.275178555352168903e-03,-2.839145519049653251e-04,-9.791012139692524485e+00
-5.160426735608758878e-03,8.671994314603812329e-03,-9.798916863948482714e+00
6.374272941799374870e-03,7.229935714771111924e-04,-9.790533293506953783e+00
-5.488449691537061401e-03,-9.047468281960975318e-04,-9.795701372338882607e+00
-4.649432509541259122e-04,2.193342744814765453e-03,-9.803645038175208271e+00
1.210076778652804594e-03,-9.727418644096782249e-04,-9.799892087940731855e+00
3.158995786762391726e-03,1.009255877524758288e-03,-9.805101863005873497e+00
-1.279533566779841392e-03,9.464165013958709266e-03,-9.791775204742203087e+00
1.959689872886625312e-04,-4.393977266805402723e-03,-9.795702704507656122e+00
-8.392837857738678908e-03,-1.540336591308595843e-03,-9.803416354056004423e+00
1.150154945374044909e-03,6.236388202109259711e-03,-9.798256176050291089e+00
-1.834713565651573293e-03,-1.820192071667712337e-03,-9.791938103294459239e+00
-5.237549090488818893e-03,-4.981764463768551844e-03,-9.789504552570132745e+00
6.379499166459427252e-03,-6.470501489915145808e-04,-9.796382744169539691e+00
-7.424822686721902192e-04,4.890481847841568995e-03,-9.796268540271384495e+00
-1.194253307393491892e-03,2.051330331764932013e-03,-9.800139335125864548e+00
-7.362095722346996595e-04,-5.126044248255668366e-03,-9.793551397918355050e+00
-2.582070262723283778e-03,-7.320507557955617008e-03,-9.789376234375518848e+00
5.486425160973168024e-04,-8.163411507025737993e-03,-9.794998327787137526e+00
6.444620003897777796e-04,-5.763078914424551308e-03,-9.799213992866777190e+00
7.019226424272093090e-03,-3.065635174077087962e-03,-9.796812689456565693e+00
7.005197383214162993e-04,-5.766658126341504993e-03,-9.801718185028999386e+00
-5.204975851372410645e-03,-3.648176475206267502e-03,-9.802642583905042173e+00
-7.828856370058953889e-04,-4.750856236117483554e-03,-9.795965537056533279e+00
-5.339457641769068154e-03,-4.450112059635161384e-03,-9.793663884310110035e+00
9.681065276449771261e-04,1.414631830627470195e-04,-9.792956091166663768e+00
1.041134218882798848e-02,-3.612569525004137756e-03,-9.791374909932617498e+00
5.028594112237518704e-03,-8.976903287992036087e-03,-9.789996292478599926e+00
9.381464339954447354e-03,-9.279682155238364732e-03,-9.804279917600185357e+00
4.440398483482582877e-03,-3.312344063818282308e-03,-9.792503521223544283e+00
-8.362937943303462227e-03,2.239780031139895376e-04,-9.796146365382092824e+00
1.285565597897123449e-02,1.867262794521470058e-03,-9.799308860898817031e+00
1.824162974573450202e-03,3.417081892256499352e-03,-9.789921958108118716e+00
-8.730458825913162482e-03,-2.672610839976310472e-03,-9.792165221981685264e+00
2.637286282170575938e-03,-4.734674984372202154e-03,-9.790078595054945154e+00
-2.324082949265163754e-03,-7.608032523952395175e-03,-9.796349319543731227e+00
2.820639963668845462e-03,1.581019997591621854e-04,-9.800371124195146777e+00
-2.178878592660800622e-03,3.460667428355584680e-03,-9.790555225284904850e+00
-4.332448744803004889e-03,5.534367901643352967e-03,-9.792548128710315325e+00
5.615796259222802234e-03,6.978997665202866770e-04,-9.799709078796636774e+00
-7.896038686448229177e-03,-1.056273765046768058e-02,-9.795630116147698629e+00
6.745050905040140751e-03,4.618422598419562666e-03,-9.794584144543884818e+00
3.365152605419914449e-03,-4.788233537648940372e-03,-9.796524694964592328e+00
8.458444583172589071e-03,2.438877168621982148e-03,-9.788418625290312036e+00
2.210655140671909623e-03,1.876319910489735680e-03,-9.788603905008663730e+00
3.828201129642301494e-03,1.434397832006159513e-03,-9.800443272316854859e+00
7.043221568660355467e-03,-6.236591737946351258e-03,-9.790939686943593401e+00
5.016818844965198650e-03,3.104470201007446598e-03,-9.790519557114286897e+00
3.214218051501514881e-03,-3.263515530511349079e-03,-9.795284327010877590e+00
2.287422647423137129e-03,-4.930896486347008389e-03,-9.799614967664432186e+00
-3.418937439107212328e-03,-1.129259232763353722e-02,-9.799774865073430874e+00
4.661135951439061495e-03,-1.090406309895910857e-02,-9.786689129619409400e+00
2.345376951227371321e-03,5.778964997341848146e-03,-9.797254869240349606e+00
-9.040577459991890118e-05,2.680407549499018872e-03,-9.794422835320299114e+00
4.768417831799167360e-03,-8.830556758996780178e-03,-9.792211533299891357e+00
-7.256152547303962655e-03,-1.186322352921882761e-03,-9.794175604986191885e+00
-6.561045257429468092e-03,-1.372242588651217607e-02,-9.790465430809714320e+00
-4.929006333737596252e-03,-3.819971623091589306e-03,-9.800540653498170940e+00
1.393207130052187374e-03,3.173241433388378392e-03,-9.791479272614909135e+00
-7.150759031465129568e-03,-5.822473775314037682e-03,-9.802047420016689827e+00
-1.145946832900822865e-03,5.426118822498550778e-03,-9.792537591398978947e+00
-5.789826158487846415e-04,-2.353796249441969697e-03,-9.801233219881474668e+00
2.222112351560860764e-03,-6.646115948945140531e-03,-9.798854397951799911e+00
-2.846214754947820960e-03,-1.575761766237348703e-03,-9.790512231352730410e+00
3.014430259974057273e-03,-2.599088594333307661e-03,-9.795640083526661712e+00
5.613419078426282530e-03,4.851260723913061908e-03,-9.793544047764209282e+00
7.660338747199578295e-03,4.616345965741826783e-03,-9.793119513673483212e+00
2.580164538030075595e-03,9.848719250343833040e-04,-9.797416541401567258e+00
-5.275304719141071103e-03,-6.281996801675034277e-03,-9.790306477133770002e+00
-5.504862515882134877e-03,9.505849831473182215e-03,-9.791043565930701575e+00
5.290377484324510805e-03,3.485586370842601138e-03,-9.794035998152095246e+00
-7.019418214459539028e-03,4.539041933111648015e-04,-9.795804762252792841e+00
-1.084571864502179538e-02,6.083153005900919508e-03,-9.795240086390837320e+00
1.487413462811524624e-02,-5.804895955308690680e-03,-9.788829897000578484e+00
1.592085167045632996e-03,-3.672919955006332879e-03,-9.798907481086819971e+00
-5.677629130412758726e-03,1.667212994300758862e-03,-9.794891903264003830e+00
-2.322837946599078107e-03,2.036125203301489967e-03,-9.795619431530157684e+00
-3.461396140430599705e-03,4.143715485017313059e-04,-9.797264071643235539e+00
-6.991728915005509734e-03,-3.690724766214795866e-03,-9.793922488094059631e+00
6.555964815024861898e-03,-4.426537266418536024e-03,-9.793413094963465682e+00
2.316233808053124853e-03,-1.605115249366913461e-04,-9.802016710723451709e+00
1.414831654400805321e-03,7.959546820484362595e-04,-9.801239003524631954e+00
-4.326147141163446189e-03,4.507221221986434934e-03,-9.795778269997468257e+00
5.682954782343892404e-03,2.396700953622605233e-03,-9.798797196047754454e+00
7.821613401621190344e-04,6.393262815891797950e-03,-9.801323371112754756e+00
-6.931015137567708533e-04,-4.579255647635051447e-03,-9.805791065596444867e+00
-4.210878730222631858e-03,1.571758973279861792e-03,-9.790328618205297317e+00
4.496295523008109890e-03,4.521361796787285239e-03,-9.784746167401719319e+00
3.572371967186996691e-03,-7.199706537217011489e-03,-9.795115127783313724e+00
-1.028682553065164706e-02,1.063974668992026572e-03,-9.796546287235630146e+00
-5.120789883309892184e-04,-1.316802295555775330e-03,-9.795047315008575950e+00
-3.833589017356777134e-03,-1.822089871002101433e-03,-9.794396911472073697e+00
-4.696668337780276169e-03,5.203919779630356360e-03,-9.789175336785097770e+00
5.985712144886021170e-04,-1.384535208329973864e-02,-9.789225789663776212e+00
-4.970271143153575863e-03,6.530333019792836785e-03,-9.790991717392659055e+00
4.071366938295922604e-03,-1.653372964838207334e-03,-9.794284056891171986e+00
-1.229434220684794609e-03,1.183185068390056778e-02,-9.795326368732283129e+00
-7.289017042944496115e-03,-1.979863322276661196e-03,-9.786070437340701034e+00
3.249356859043787613e-03,-6.193821779997837548e-03,-9.793090498398566268e+00
7.930868948382565828e-03,-2.188529754628677944e-03,-9.783006026009255507e+00
6.292262378513550219e-03,5.088041226050938996e-04,-9.796054166003123953e+00
-3.806776099311150446e-03,-1.783105436724188603e-03,-9.793202469604239013e+00
-5.176457534757146310e-03,-6.808509002838319772e-03,-9.798296338059858002e+00
6.010835011616596753e-04,-8.433347816556671997e-03,-9.797006871102729164e+00
6.023544713381432519e-04,-3.177051220014428731e-03,-9.791030867071290444e+00
3.461479383801696749e-04,-1.921968481304536184e-05,-9.803138230283355625e+00
2.411069235831482657e-04,-3.462711668729985927e-04,-9.796662688115356232e+00
-5.831435219202717873e-03,5.383039050943365031e-03,-9.792832026819588975e+00
-8.257983834943115938e-05,7.172168248213624600e-03,-9.800106886224568825e+00
-5.416673683500541209e-03,-4.274545936986210229e-03,-9.787332518380802426e+00
2.644711596026756272e-03,1.479319023513909342e-03,-9.798293220909492618e+00
7.040705895924536349e-03,-8.876708846658082699e-03,-9.799538116500672302e+00
-2.304473186265042477e-03,1.309674671079706296e-02,-9.797898424825309149e+00
7.862415264538348894e-03,3.153184131530215387e-03,-9.794905910179304342e+00
-6.028222965267325886e-03,-5.002382555826051513e-03,-9.782163319233022847e+00
-4.867687945982075541e-03,-6.231806540448305357e-03,-9.787726911607057545e+00
-5.065842814742298021e-03,-1.608742523767569058e-03,-9.785960228146452167e+00
4.552294096567199681e-03,3.324225753633809101e-03,-9.794024781453888551e+00
9.622179977916264695e-04,1.070997554174064892e-03,-9.794036874410311455e+00
3.497365534727531894e-03,-6.230374559852336694e-03,-9.798132771466997681e+00
-3.670930728239394552e-04,4.045605485742318624e-03,-9.798739492124365569e+00
-3.639236579311870730e-03,1.007934031673795574e-03,-9.788512067129595096e+00
9.410670283041657272e-04,1.773395961290897887e-03,-9.798003238788007607e+00
4.470316864384496491e-03,-1.067528065159686988e-03,-9.801363670857243804e+00
-5.095851999797906991e-03,2.639336061826323080e-03,-9.795645710932705086e+00
2.174736007369384647e-03,-7.428623550668125982e-04,-9.793322040020166597e+00
3.704891353761848895e-03,5.223797855997126122e-03,-9.793634272054868362e+00
1.251734651274831760e-04,9.478585384168422209e-03,-9.787954097619078198e+00
-5.601842467114264909e-03,7.503639518278192380e-03,-9.798154435258693340e+00
4.680473193436070862e-04,-8.139632363681854541e-03,-9.797995679601688934e+00
-3.014245594464027081e-03,2.263766543221950450e-03,-9.796156087541852742e+00
2.578443086404828746e-03,-6.192306695959636995e-03,-9.786008382150605200e+00
2.962462892933431964e-03,-1.563528253991042401e-03,-9.794558300497612890e+00
4.149840861760178100e-03,-4.938859038055729879e-03,-9.795965471389628476e+00
-6.788820787794906664e-03,4.088723116056220026e-03,-9.795106525288797883e+00
5.163141170361232497e-03,-1.137666426097868212e-03,-9.794793874265067757e+00
8.216601926466676406e-03,8.235391792962877544e-03,-9.785497535406262770e+00
-2.155649240110527314e-03,2.952617925089659002e-04,-9.788177112142669500e+00
-2.242038086700434609e-03,-7.376426179483505478e-03,-9.798261361968922500e+00
1.167855821192378182e-03,1.341094860685473769e-04,-9.791379225187728963e+00
1.663420996167864433e-03,-2.794014227350651806e-03,-9.796118410914944619e+00
-3.489631249764371928e-03,-3.652735643623568340e-03,-9.798094078613790003e+00
-3.531105104619228522e-04,-3.757743580515948700e-03,-9.794682450399713858e+00
-2.352634524162335050e-04,-2.069987557619869679e-03,-9.802751770656911390e+00
-3.409248291729309686e-03,-4.457473206603388034e-03,-9.794525450370199948e+00
6.127662103695140665e-04,-9.245587276633339055e-03,-9.803620313478912607e+00
-5.941260931163364588e-03,-9.614672349831794931e-03,-9.802154834853158860e+00
-1.089948728821567205e-03,1.042700009838575838e-03,-9.798504078129427697e+00
-1.249568555667383363e-03,-2.677103963576267509e-03,-9.792701680894097649e+00
2.294401669112548087e-03,-6.472843643014305256e-04,-9.790928185282567142e+00
-2.259944522673911372e-03,2.567800376016543713e-03,-9.800257422289023523e+00
-5.333771703561986566e-05,-1.217122310496623894e-02,-9.788904897862213517e+00
5.311123160953082518e-03,4.487007485412513458e-03,-9.800071623118215669e+00
-1.693397711595572746e-03,3.245745992866590343e-04,-9.798370597719207709e+00
4.322375496008190078e-03,-2.465756133831092413e-03,-9.789681703392256296e+00
-6.746730600898479674e-03,-3.838062092398851315e-03,-9.798480314493955845e+00
2.493964249664599314e-03,-1.371241296735313227e-04,-9.789961977843105956e+00
3.303049111058733566e-03,-5.223413611119559138e-03,-9.796932573336349037e+00
-3.094164973209796981e-03,-1.131784889836466058e-03,-9.790200182307399857e+00
-4.412910960710193613e-03,-2.142729191119138211e-03,-9.794460414983026553e+00
3.536164959607735782e-03,-5.475558387662605303e-03,-9.797914365422469629e+00
1.662925491426577918e-04,4.117379389047577795e-04,-9.801279413282623310e+00
5.276660846537263756e-03,-3.911819404739608555e-03,-9.792706289851242474e+00
-1.901489895844243752e-03,1.183163698606980088e-03,-9.792594911509322486e+00
-8.678836932274730173e-03,4.221114745935704467e-03,-9.798505049619945950e+00
-3.835344628689543647e-03,6.041388707126293250e-03,-9.793333113810051671e+00
9.057638039790013153e-05,-3.152346036567661106e-03,-9.793921758539456235e+00
4.993850314885058331e-03,2.721730948316566662e-03,-9.788861186814392212e+00
-8.052692600262697370e-03,-2.326374717070657603e-03,-9.788867467267435174e+00
-2.109502132222631360e-03,7.175297992675548284e-03,-9.786858624842546206e+00
-2.315253876009678858e-05,7.709217470989844327e-03,-9.794341688821695868e+00
-8.399867565093734056e-03,5.895255946574719068e-03,-9.799804377236544184e+00
-3.307225622607895370e-03,-5.442372470803486482e-03,-9.800029156901681304e+00
4.259337528695844241e-03,-4.152190138784337368e-03,-9.805078729981905994e+00
-1.700503779596204343e-03,-1.482796179576499054e-03,-9.803272227596238508e+00
4.324937103855092547e-04,-1.042828120062669686e-02,-9.791529523490597242e+00
-3.589911515057217788e-04,1.367205616774770822e-03,-9.800428550862351429e+00
-1.024746501198367694e-02,1.029777295196492417e-03,-9.789696964842233839e+00
4.519465738545863642e-03,1.369141522599565119e-03,-9.791568687561722939e+00
2.081136508175911864e-03,5.936745017688833687e-04,-9.797423931186648005e+00
-1.148424740634488520e-03,4.735626951981004168e-03,-9.791182500364744357e+00
-5.063332712146845866e-04,2.820506008527823814e-03,-9.793126356593392146e+00
-2.960272397041926584e-03,-2.591312745509018797e-04,-9.797647289519233027e+00
-1.132473981842817799e-02,-2.746345820654488672e-03,-9.793454166191672527e+00
1.552009944210630771e-04,-2.487788657923436543e-03,-9.800361665331406513e+00
-5.052137531722891359e-03,-3.746445917184256652e-03,-9.792651087565891643e+00
-9.722055013975258730e-03,8.080618413770266446e-04,-9.794746219597017856e+00
-4.289498397547043124e-03,-3.360147444730543151e-03,-9.800467775942124149e+00
-2.789922547049350065e-03,-1.193714403230443366e-02,-9.791873569061804616e+00
-3.758234242749276463e-04,-4.636579783373943019e-05,-9.805534484972417530e+00
-5.800761610951592900e-03,-1.042623980302512764e-02,-9.792802913594711001e+00
5.376930776382026628e-03,2.298208725939015432e-03,-9.790889627644329352e+00
7.583264469175330681e-03,-5.278818328374186575e-03,-9.800280941894429887e+00
-4.339063594557612119e-03,-9.149002725336847055e-04,-9.795303954965380200e+00
-8.893426493272296230e-05,-5.357419995156704855e-03,-9.785128163831462444e+00
-2.153543063684076192e-03,-4.571558224742483176e-04,-9.804976874031909873e+00
-8.908291120233908806e-04,5.280721017792924625e-03,-9.797238818770242830e+00
6.818241997501531954e-04,-7.950179089922437478e-03,-9.805245353170978007e+00
2.033078831441892560e-03,-2.776955558013072603e-03,-9.795099519559901324e+00
8.289489381134998924e-04,1.252256405500160215e-02,-9.794649615348186344e+00
3.551394019182958425e-03,2.969400723178652890e-03,-9.784969390997410699e+00
2.102751988089010277e-03,7.147474998963771961e-03,-9.794361400455823485e+00
-1.493343399356388511e-03,-1.752060765548153678e-03,-9.789875793222451605e+00
9.125519949620159322e-04,-7.773358647125491391e-03,-9.789795633441947587e+00
-3.868928778471751682e-03,4.253008730234613191e-03,-9.789355452206375929e+00
6.902364880323144485e-03,4.893712624765267881e-03,-9.790577558853854612e+00
4.492552641029648984e-03,9.784752873469452009e-03,-9.788540417598225574e+00
-1.437163515761347241e-03,3.399597359945359838e-03,-9.794885742590702549e+00
-6.538797573483690279e-04,4.515436610059656714e-03,-9.784050802768014421e+00
-2.213977773708872363e-03,7.476544250000010175e-03,-9.792917815114067892e+00
3.540839456426968755e-03,-3.665580813217906089e-03,-9.796945463363504913e+00
-3.107746011433592127e-03,-9.285798011685964318e-04,-9.789791534186639055e+00
-5.812186207913213123e-03,2.312089477088578524e-03,-9.795409088137308373e+00
4.268740087219655144e-03,7.497577426184040376e-03,-9.799260225059887475e+00
-5.661123227527752391e-03,-1.269462236077631249e-03,-9.794303684652424735e+00
-4.349478074820742855e-03,-2.617511145039205789e-03,-9.787421859121936407e+00
4.009411764662478353e-03,1.536793739555334347e-03,-9.784732118426392233e+00
3.457538251668397511e-03,2.504705876802835497e-03,-9.792447245254686905e+00
-1.073593241817582308e-03,2.047843921376471359e-03,-9.789887373204715360e+00
-2.338348786909502913e-03,-7.020756764229914119e-03,-9.794469666304129518e+00
-1.953439787990029792e-05,-4.755273267136064103e-03,-9.800527281918801847e+00
-2.806924866826022123e-03,-2.943227235194028832e-05,-9.801967558841083061e+00
1.636169003918474521e-03,-9.666804307132511242e-04,-9.798993099608692248e+00
-6.991727795528714399e-04,-3.733119847943390870e-03,-9.791200074625420413e+00
-9.708999615322832025e-03,-6.435089424238991116e-04,-9.794249838504045513e+00
-3.050280676859980656e-03,-1.466839357425889830e-03,-9.794858262246265213e+00
-1.379796618805628674e-03,6.105687007159417857e-05,-9.791396445446313379e+00
7.933523694544131893e-03,-6.253533434245608577e-03,-9.793474829429737127e+00
-2.575411073879671150e-03,-8.906598337915136139e-04,-9.790357207656688487e+00
-4.705848698322820031e-03,2.754030070855681758e-03,-9.810922251123480820e+00
-6.604789178080563983e-03,-5.290770319810767473e-03,-9.792424027939127029e+00
6.351842739011218444e-04,-2.322965739317581733e-03,-9.793398860907645442e+00
-1.423389585863632728e-03,5.307688317660035505e-04,-9.801557258903679681e+00
-3.968273458783731951e-03,-1.587288940156465333e-03,-9.794475769957129430e+00
2.386054110565171088e-04,2.151773789238142342e-03,-9.791069847697535522e+00
-5.931739724579573533e-03,8.672110031503447872e-04,-9.791399665800097907e+00
2.030529182155414118e-03,-7.605690541445244562e-03,-9.783025920706158729e+00
-9.950385182489310948e-03,-3.168246834621395863e-03,-9.790429805297533150e+00
4.103635352623653809e-03,-1.225236798266975298e-02,-9.789964138949709849e+00
-4.286833849890387543e-03,-4.212880262861005976e-03,-9.789861857078777874e+00
5.129488555071030562e-03,2.812018051063985835e-03,-9.793821853398647193e+00
-4.177580691089140090e-03,1.717084265700691715e-03,-9.788076940022902406e+00
-2.703607356943842337e-03,-6.149654202894452165e-03,-9.790922042519214941e+00
3.942907573225356774e-04,-1.481311680194407438e-03,-9.786984464035805686e+00
-7.523688761379920646e-03,6.019689284314819026e-03,-9.789082993551492251e+00
-3.970012553131235453e-03,6.735073899544181605e-03,-9.786628583543381055e+00
4.068959551818043981e-03,-5.609569358886867287e-03,-9.797640483235849018e+00
2.758645595603779511e-03,6.173320316344489168e-03,-9.794396797337979521e+00
-3.913205180652789064e-03,1.379344169564403980e-03,-9.781968793726132816e+00
2.639992646099108102e-03,-2.806528523413044651e-03,-9.795263867228435117e+00
2.238115001633900203e-03,-3.475234707184604067e-03,-9.795383448398361281e+00
4.166105167840563304e-03,-8.554687914991808070e-03,-9.794099781002156391e+00
-2.162282835180296195e-03,3.568964583736661863e-03,-9.792277760431016276e+00
1.570196475702070535e-02,-1.002682824051881645e-02,-9.787228725901456983e+00
9.191246887092571413e-03,-7.134732971709087726e-03,-9.786306833559795137e+00
-4.846252209282854613e-03,1.339030355844407060e-03,-9.796527024621981994e+00
-4.258423286768494155e-04,4.292989238318131381e-03,-9.793151670143117826e+00
1.951716434454691014e-03,-7.781838725761683513e-03,-9.790757902932309520e+00
5.127874298222873627e-03,5.535782823145504392e-03,-9.795518103872694837e+00
-4.976122728505718131e-04,4.591642494261142377e-03,-9.795841404632092519e+00
1.705282342983642431e-04,-6.100101185450597721e-03,-9.789684005362166985e+00
-5.996743583811033930e-03,2.283952903038615791e-03,-9.800841290230087210e+00
-8.119084912541305044e-03,-7.282862134856297326e-03,-9.791911672862292804e+00
-2.073868963485516609e-03,3.413092580361096369e-03,-9.792756897795673154e+00
-5.730997154954954077e-03,4.818150476791530079e-03,-9.798695767417743951e+00
-1.299871995626957584e-03,8.322442021358596523e-03,-9.805131842202163384e+00
2.850780894662877443e-03,-2.305897301527962216e-03,-9.791749467670303630e+00
-3.487773927003905931e-03,3.219866889641171976e-03,-9.794019372588730121e+00
2.474919108649855618e-04,-1.552615594544942386e-03,-9.790500314133334214e+00
-1.907105538551704185e-03,1.716346041683209072e-03,-9.787618441581821926e+00
5.364850061633852536e-03,6.880207477397871398e-03,-9.788986406975661581e+00
3.775571416984915916e-03,6.153021698288242171e-03,-9.791867408000282325e+00
3.368237887678068258e-03,1.793571756539982017e-03,-9.793858284482261922e+00
-5.715048117049505638e-04,1.083185040135393844e-02,-9.791599996549816609e+00
-4.878073195151445482e-03,2.007763294621075015e-03,-9.786839517307532432e+00
5.053005239442355002e-03,-5.267744691656885830e-03,-9.803568243894348555e+00
3.801320499047748398e-03,4.755553733304034719e-03,-9.796659551394087728e+00
3.620721410585578913e-03,-4.732234224480088257e-03,-9.798108825808270694e+00
-5.625672011390698245e-03,4.026233199532215125e-03,-9.798964675958542259e+00
4.950873900414057743e-05,-2.076689148927023110e-03,-9.807761739359435182e+00
5.726768255791696988e-03,-2.276929519458117598e-03,-9.800168873936252467e+00
4.376748114838682855e-05,-9.278593011877585631e-03,-9.794980435298167976e+00
1.029876093675044860e-02,6.196750055619042142e-04,-9.799482460061918587e+00
5.100692178356063845e-03,-2.001464124858160377e-03,-9.784901653744775274e+00
1.209187729570108342e-03,-1.780564316590188198e-03,-9.802339550792002143e+00
-1.597424264632429317e-03,1.702437727012296505e-03,-9.801290563352244689e+00
1.265862967565736926e-03,2.250569738784864021e-03,-9.793622770006045641e+00
-9.833469177515950788e-03,-4.524404766437507310e-03,-9.789557896869498066e+00
-6.816535991868228261e-04,4.701388642666132905e-03,-9.792796650587645146e+00
1.183486039567071928e-03,5.263479684216644007e-03,-9.785975196394016251e+00
8.098767773869834305e-03,5.390346190669446230e-03,-9.795276937839956233e+00
7.041332459339450997e-03,5.855150651998887977e-03,-9.802601773075119596e+00
-2.476529557900356438e-03,1.648598141135154162e-03,-9.796367803408505992e+00
-6.411693093571443555e-03,-4.824337888703730988e-05,-9.790543370493631770e+00
5.253570898759653447e-03,-1.308238750887626362e-03,-9.791013185781226369e+00
-4.270165199769551841e-03,-1.997442795172811592e-03,-9.804613917051797856e+00
-4.280953777866780205e-03,-6.429949306082850813e-03,-9.795181467366894879e+00
3.566399146192217665e-03,-8.863984800109194276e-03,-9.800830036949491841e+00
3.306391993446144463e-03,-8.130218485922611647e-04,-9.792143100145908718e+00
7.770986951044405247e-04,-2.317153054318532926e-03,-9.796892050744556713e+00
2.489653933577824513e-03,-1.893616049281725494e-03,-9.796425695884426688e+00
7.384490423576300401e-03,-3.428772608554098676e-03,-9.795728588866849051e+00
-1.096691712472518815e-03,6.161167307265066418e-04,-9.798911608746454505e+00
-5.381533038061877411e-03,-1.896725023776895096e-03,-9.796586927729951100e+00
2.054973542491294811e-03,-1.918908137789986004e-03,-9.798905772255936952e+00
-2.093401384886334985e-03,-2.839936392151426285e-03,-9.787051616340606941e+00
9.716439387008364917e-03,-1.726536064898728622e-03,-9.791185132437567162e+00
6.978240459504768140e-04,7.418785469283131458e-04,-9.783252719675092024e+00
3.639719934338106044e-03,-6.419644582956067274e-04,-9.786529083207462065e+00
-6.736697783050145166e-04,2.934134501278040045e-03,-9.798808208716629053e+00
3.519762810721941467e-03,-2.863237532133741832e-03,-9.789002184723432975e+00
-3.785045031117957072e-03,-7.066672695099701293e-04,-9.796902089762214771e+00
1.010328033340058239e-02,4.645834108431627987e-03,-9.790162444189803637e+00
3.308017631450150316e-03,-1.013039689103889876e-02,-9.794301853547660031e+00
4.187412213564944974e-03,7.510627184976163481e-03,-9.792358675441333205e+00
9.708872614145419534e-04,9.692255077659528645e-04,-9.796292516244026416e+00
-4.498091124761514556e-03,8.400516343177007877e-03,-9.800638815892778410e+00
1.516440387876897243e-03,2.879200992662758578e-03,-9.796626118459219157e+00
-7.160063075383022238e-03,-5.463547653246287814e-03,-9.795023524668872383e+00
6.496573504917294885e-04,7.087174103552019294e-03,-9.802451314011051409e+00
-9.075267822727583686e-03,-1.027795862046978863e-02,-9.793374708301836762e+00
7.075012451484399660e-03,1.488555015271791123e-03,-9.792762409685400016e+00
5.530619902249575039e-03,-1.696389829112660442e-03,-9.793950340195646476e+00
3.115564190586619323e-03,-4.474461716702045691e-03,-9.792729631497481435e+00
6.560706628263138045e-03,-5.048865049467176486e-04,-9.799822742837516643e+00
-6.399147619686780183e-03,2.166342599480156408e-03,-9.799364410825981864e+00
-6.847726722107343915e-04,-5.193721811939849874e-04,-9.793579758716694172e+00
-9.145636323177294344e-03,2.296807661565007305e-03,-9.801991750163574935e+00
-3.903490589806238049e-03,5.084813063231273175e-03,-9.793792592064484381e+00
1.127703303692775870e-03,-1.005227698797815997e-02,-9.798630619067285608e+00
4.588190084328526604e-03,1.097175869718112129e-03,-9.795360519065694049e+00
3.459208358938002984e-04,6.841555079514734239e-03,-9.796736269088702542e+00
2.159493637415827328e-03,2.184104241597855517e-03,-9.795287983659603626e+00
4.152768499213360144e-03,-6.068671295232934762e-03,-9.803088376494065059e+00
-5.291186773007980999e-04,5.108362731072985108e-03,-9.797352505293455138e+00
-4.275992852282821383e-05,-4.046838473542636178e-03,-9.793526262122709269e+00
-7.692162435455198810e-04,1.067900462239034691e-03,-9.788464179246419761e+00
4.307550297635498980e-03,-4.270314784965990526e-03,-9.789841443967914003e+00
-7.704149490963653826e-03,1.186637388260160068e-03,-9.794527549147023393e+00
-5.014328454166741729e-03,1.468105859229877066e-03,-9.799944442923122168e+00
5.667745411837262284e-03,5.374423663580116771e-03,-9.784284138011319243e+00
-7.091625207896483721e-03,-2.346579679621288612e-03,-9.800497831141676386e+00
1.331815735509639170e-03,-2.355252599471874438e-03,-9.798004324691332201e+00
-8.494320790705571847e-03,2.639952251234281306e-03,-9.783762971216823701e+00
3.525239228663360164e-04,-6.870299203455686177e-03,-9.794373021001804958e+00
2.208044395142748535e-03,-2.586485190219244348e-03,-9.805549811300764418e+00
-3.472782638249045841e-03,2.326502087451849405e-03,-9.793401712960481120e+00
3.865618717932590574e-04,-3.271336931991883964e-03,-9.796808822312067733e+00
-5.576351974816227530e-04,-4.983218802169198883e-04,-9.792069657043546371e+00
-6.368334854413470331e-03,-2.596368923353280060e-03,-9.794649574533455194e+00
-6.398886042007580037e-03,1.697541466088482156e-03,-9.784966574394037053e+00
3.520633277962651169e-03,3.976210385614056299e-03,-9.790992599684372522e+00
9.956161432250136122e-04,-5.924416751120770023e-04,-9.797114000936513634e+00
1.674478264419807525e-03,3.019048127117633998e-03,-9.794027899567741002e+00
1.807839837354607848e-03,-2.819898226309158849e-03,-9.803897932574825447e+00
4.923415445788253096e-03,-2.953260379194839677e-03,-9.788485008962522826e+00
2.025174902068668271e-03,1.093408450419108835e-03,-9.797368547885884738e+00
1.584555319234300964e-03,9.603301942153917234e-03,-9.796686699264009590e+00
-1.833537405499414692e-04,-7.166398283995300406e-03,-9.793730715024752342e+00
7.322297535632896724e-03,-3.758053548096967032e-03,-9.785919408353192850e+00
-5.950234779944565955e-03,1.102046561654848947e-02,-9.793176638382567134e+00
-6.183035428672752597e-03,3.197988814161926378e-03,-9.793862998760502592e+00
3.816555070292682386e-03,-7.894752687779506631e-03,-9.796521165000109832e+00
8.342083674495213291e-03,-1.250712448152310578e-05,-9.792668954413180415e+00
-2.870772016053386652e-03,2.361874151675617296e-03,-9.796632658884989908e+00
-2.925462040011652613e-03,-7.590599609555767797e-03,-9.802586432950660011e+00
5.099099609865262624e-03,5.772390111459333589e-03,-9.794900328302194481e+00
-6.310554772080286326e-03,-9.977291642444144435e-04,-9.793247227524208398e+00
9.630506876498263341e-03,1.460548644060418160e-03,-9.791609656576465426e+00
-1.430299981494464849e-02,-3.924571631636585012e-03,-9.797659981150451003e+00
3.353482151644042453e-03,-7.578742643099484547e-03,-9.790784906514808483e+00
-5.085451158219515995e-03,-5.339994500690219137e-03,-9.794105485297768254e+00
4.452228026295579344e-03,1.727771739523490746e-03,-9.793105696319541309e+00
7.711571055275588324e-03,-7.019839440599866427e-03,-9.792431971130152846e+00
-6.030260530029004154e-03,1.454001930227775789e-03,-9.799174864192368162e+00
5.455138372190095584e-03,7.625970876092736696e-03,-9.788251413085379937e+00
-2.920168099525030040e-03,-2.129556346671324790e-03,-9.800432845805993054e+00
5.212976844759257579e-03,4.490800626710598001e-03,-9.785690179764618080e+00
4.022858497089668722e-03,-5.012811162831222293e-03,-9.796764225022997152e+00
4.291676743609630813e-03,-5.372806586541587805e-03,-9.793377467653456847e+00
-2.755284245577400634e-03,3.465636078217418457e-03,-9.794534190269697405e+00
-1.559329252912622409e-03,6.683123342251044144e-04,-9.795843189619388269e+00
-9.441784880963482660e-03,8.906300259729873700e-03,-9.793618897715765215e+00
8.397022191826366069e-03,9.688068263754554856e-04,-9.798451681205344599e+00
3.834346749648102903e-03,-2.021350265997224564e-03,-9.787100095282077916e+00
4.914633763222975987e-03,4.919139820189755413e-04,-9.798115010325634699e+00
4.876700670868165145e-03,-8.802972199650248644e-03,-9.798390312291669346e+00
4.039065047647824591e-03,4.970736860059359573e-03,-9.797110017598281928e+00
6.079261817001988498e-03,-9.150209558277660072e-04,-9.791939903199317285e+00
1.006837306347939647e-03,1.930586985918264107e-03,-9.791644803093717542e+00
2.211274002340772159e-03,-3.414194865411563327e-03,-9.793200270927270523e+00
1.957867441403250176e-03,-1.107946125948483041e-03,-9.792353515804411046e+00
-2.417382897982982715e-03,-7.177678293206386957e-03,-9.793222652771664372e+00
-8.241486176926333951e-03,-9.054831513762249054e-03,-9.802880645844011198e+00
-7.303646378673649955e-04,-5.901907849910616351e-03,-9.796245294931253511e+00
-1.587679505440030801e-03,-4.959089688802771623e-03,-9.787842535087177609e+00
4.071508908190907619e-03,-4.024664337265792396e-03,-9.789230770110131985e+00
1.016034439919840217e-03,7.078775203060583146e-04,-9.790137653018556207e+00
-5.130168672234845101e-03,-6.834406890120862769e-03,-9.800278994001185850e+00
1.267780789290574557e-03,-2.182095604072232554e-03,-9.801258384787981726e+00
-2.193079253024363302e-03,1.243289059505609494e-02,-9.794715877740351573e+00
2.865570675127620051e-03,-9.585987742500533954e-03,-9.791185503161806025e+00
-3.055640692727927630e-03,-6.067953454334059152e-03,-9.797392086048979820e+00
5.576346582347975651e-03,-6.909990873904530741e-03,-9.805621991094605860e+00
1.400710296211411408e-03,9.429104351797056765e-04,-9.798522453215362304e+00
3.085434459561648465e-03,-6.265020263414778322e-03,-9.793663667322741517e+00
-7.558364439601090914e-04,-2.181213174633971769e-03,-9.796046346800787674e+00
4.652999057958752925e-03,3.200866032044609281e-03,-9.787215009435861646e+00
1.991413748133309355e-04,9.840312989943806113e-03,-9.795652955250673699e+00
-9.343163410462276830e-03,-1.409295802722793697e-03,-9.787030638685237705e+00
6.624314413666681708e-03,-3.495838580180887518e-03,-9.799676354713380277e+00
3.927771124153460122e-03,-9.077306612031566099e-04,-9.796477412750460800e+00
6.141477156544631645e-03,-3.048552009713836127e-04,-9.787347239862846493e+00
-3.762689063079098419e-03,1.254183585571625554e-03,-9.799112919451626880e+00
1.235309985113199104e-03,3.166472266745234444e-03,-9.804369565654475593e+00
1.053545190919323018e-03,8.949147999735788256e-03,-9.794075269742881673e+00
1.197468436843299698e-02,-4.695256022451984798e-03,-9.792639236789524304e+00
-8.585258942549077107e-03,-8.310830364736000037e-03,-9.796051218942288585e+00
-2.536270252754741807e-03,4.795303895603982361e-03,-9.793228535802631640e+00
2.769181193962270190e-03,-3.373625393362689098e-04,-9.788406439006015702e+00
2.697926360585201685e-03,-4.061775390046541180e-03,-9.796943398290439475e+00
-7.626825724012415396e-03,-1.236173464511679254e-03,-9.796247927318852078e+00
2.609353799966962484e-03,-3.352640263861632677e-03,-9.796603844043017872e+00
4.893261493703558382e-03,-2.642986149616409486e-03,-9.792041385725324787e+00
7.176346262550443306e-03,-1.582171221645896136e-03,-9.793740093543970460e+00
-4.326120258373664616e-03,2.145646064405417382e-03,-9.795717804496298697e+00
-3.032555685719337361e-03,-1.624879959110695632e-02,-9.796919587110286542e+00
1.729171687624067328e-03,2.527948077807447465e-03,-9.792866087423693244e+00
-9.035197558903871121e-03,-2.335169567004244991e-03,-9.793239256695814632e+00
-8.409928493564345102e-04,9.656286639829129818e-04,-9.791827167468598603e+00
9.190552089433801780e-04,8.234951341550552500e-03,-9.794215510087623144e+00
-1.637496032679925610e-03,-4.998371063690165705e-03,-9.790881248344165400e+00
1.215549663532223233e-02,8.622915282252259853e-03,-9.787056908033594738e+00
-3.421146999925232801e-03,5.625259696572195399e-03,-9.795346170749612114e+00
6.996377713253769219e-03,3.586357493787425531e-03,-9.792007625294161244e+00
-4.816828346243804022e-03,2.249154408655416534e-03,-9.792349177605483845e+00
2.475809311046151331e-03,8.052777521018515770e-05,-9.786023976101819954e+00
-4.605769001728104647e-03,7.179451614856006275e-03,-9.793004741314829786e+00
3.257368915933061236e-03,-8.830472954297813315e-03,-9.795739463189718776e+00
3.446065634271756103e-03,-3.718587093369097804e-03,-9.792117260334222806e+00
8.460148531026792868e-04,3.374023995207722088e-03,-9.789499187762791266e+00
-2.804483813356181427e-03,-3.044277074211345149e-03,-9.797271293302292960e+00
7.017837177993171277e-03,-1.526664161904108235e-03,-9.790427485130102525e+00
-4.458152409934002490e-03,2.135098585859316993e-03,-9.785238650800669902e+00
-2.115596264087859189e-03,-7.003270225335565119e-03,-9.799723012097414809e+00
1.863365629681744970e-03,-3.045921314783734714e-03,-9.795327123144021542e+00
-1.121507647539192465e-02,-7.201480416249860655e-03,-9.795270119076544546e+00
-5.848496415067246969e-03,-8.696704942045916514e-04,-9.807926179891607532e+00
-1.637203246359808908e-03,6.797220601330170205e-03,-9.792284870286351861e+00
-1.309216855113595149e-03,4.059000883856630354e-03,-9.797198981571648702e+00
-6.957591142536792214e-03,-5.261935334443435322e-03,-9.793960270534773471e+00
2.019718725939205657e-03,2.553000867694422103e-03,-9.799974874122289847e+00
-6.510652739622401104e-03,5.322543061824516752e-03,-9.790477465241748334e+00
-5.969980570768515515e-03,-3.220143225167607180e-03,-9.798381369300960486e+00
3.027118949468130069e-03,-9.971095424527624124e-03,-9.798251654776814590e+00
-2.543071133670053805e-03,5.994528373512970172e-04,-9.797503841252263257e+00
-2.757489145983153637e-03,-1.266726737193166023e-03,-9.793927329168720775e+00
5.116672721409365465e-03,6.094639705128216886e-03,-9.801015038145433067e+00
-3.362547937502213900e-04,-8.180098275142442046e-03,-9.793243868918441564e+00
-5.011308182362619705e-03,-3.792730321522645113e-03,-9.790542593781975000e+00
3.857433551851871881e-03,-2.187145539334886795e-03,-9.795424644472097597e+00
-4.269554626581464722e-03,-6.329268084386658125e-03,-9.795927940024320435e+00
5.277252805178229284e-03,-1.392538627358567462e-03,-9.793685507639079191e+00
1.408002059691193606e-03,-9.371979815019779864e-03,-9.796256470058782639e+00
-3.311601992739610523e-03,2.385653949152451896e-04,-9.791008624961030193e+00
6.624768221075553326e-03,7.217211148994789882e-03,-9.796276390312224081e+00
-6.167755003543975469e-03,5.462053687891450749e-04,-9.790287621230596926e+00
-4.421517551374608973e-03,-8.232454256910510387e-03,-9.795231229476984325e+00
1.379821765767970127e-03,-7.557312346060972470e-03,-9.796688767989001789e+00
8.970295346396382589e-04,-6.972854157250921170e-03,-9.793663400941509778e+00
2.762895253849506540e-03,4.417963631725494410e-03,-9.798741987333865922e+00
-3.268442844051449268e-03,-4.417663881789869046e-03,-9.805149258686432390e+00
-7.996174466330730965e-03,-3.547321101984460788e-03,-9.796304680303892454e+00
-1.060332612097519660e-02,5.464569420592388892e-03,-9.794913747296119411e+00
2.341691179479808531e-03,6.515697999585541925e-03,-9.796152697199977055e+00
-6.294596276327591410e-03,3.100659127279848087e-03,-9.795583291391368519e+00
-3.493089530258430050e-03,2.676989015650011947e-03,-9.797764053368899440e+00
-7.260141791880392759e-04,2.973785469545801603e-03,-9.792316543464076872e+00
-2.178795022005536146e-03,2.188372323025479255e-03,-9.786340549472473782e+00
-2.880247730915044477e-03,-6.994848792110507953e-03,-9.793480402734145329e+00
-6.340144567187509447e-03,-3.832620285133302076e-03,-9.796902578380116466e+00
9.936036295582405253e-02,1.591161254211893514e-02,-9.796966918500434218e+00
1.784037535867486202e-01,-7.951508157460115619e-03,-9.796596126433671614e+00
2.766235107715966368e-01,9.569654317291386011e-04,-9.786609558314314228e+00
3.463306225668592031e-01,4.658449433619116578e-03,-9.794921983001806609e+00
4.117887895147950283e-01,-3.825047471006750893e-04,-9.791679671230564708e+00
4.635316476237439365e-01,6.544633614413786563e-03,-9.802784356966725454e+00
5.323430941380224990e-01,-2.889214445160363191e-03,-9.792011987698082010e+00
5.711065586192513033e-01,-9.657942637992533025e-03,-9.789069231252772951e+00
6.111771979256991338e-01,-4.098692314544559803e-03,-9.786565888660224033e+00
6.520214154407423246e-01,1.966387199831619564e-03,-9.796747625684178118e+00
6.796430949060130455e-01,5.577063066180813593e-03,-9.792216963260761631e+00
7.186670995035974174e-01,8.485157025165526029e-03,-9.797612719874349452e+00
7.377996195705128768e-01,-1.033992132804011088e-02,-9.789996862534836808e+00
7.686263192484853457e-01,1.484879628132768602e-03,-9.802649991113696615e+00
7.917360943884378388e-01,-1.807276427672326611e-03,-9.805801123058587976e+00
8.163824989968804235e-01,9.034721703127591205e-04,-9.793231818805699262e+00
8.307028648528366199e-01,2.815729815068022945e-03,-9.791556249524456135e+00
8.443009608095676244e-01,2.400361144032738155e-03,-9.798476837024860941e+00
8.611720594517539018e-01,-6.333083664766567950e-03,-9.796262222998144864e+00
8.693842006761370866e-01,-4.902475606636453632e-04,-9.799376572516377948e+00
8.912983925367770066e-01,7.257458234319072443e-03,-9.787579980490429321e+00
8.984112582863436058e-01,-1.038418302421965879e-03,-9.793004687703346534e+00
9.101697141704484517e-01,-1.178096797002419144e-04,-9.794426422404818311e+00
9.191314819011785486e-01,6.651836096136136758e-03,-9.798419287644373199e+00
9.255568482893269389e-01,1.009160053096589023e-04,-9.787499086554422689e+00
9.383309017145516906e-01,-1.121190343284998898e-02,-9.796524614821256804e+00
9.353984631459814070e-01,4.330283713593167938e-03,-9.789178966818527172e+00
9.471196648465508572e-01,-4.286620755137715913e-03,-9.792543028842047192e+00
9.536287523717190684e-01,-2.741231946352268474e-03,-9.792881867702746490e+00
9.660752064415167872e-01,9.916638093851886521e-03,-9.800806328603981044e+00
9.650124958326408153e-01,3.712102740322053770e-03,-9.790721812416448344e+00
9.731518511702365037e-01,5.223759001339801228e-03,-9.801707146032882179e+00
9.661972712532779228e-01,-2.329783768171461537e-03,-9.795070662821139251e+00
9.711900767048106120e-01,-4.913638476070745879e-03,-9.792735313086598836e+00
9.773186535237836647e-01,7.456425653604111838e-04,-9.796976073450291977e+00
9.802826138431809389e-01,2.211408165232224814e-03,-9.796818231763698037e+00
9.809967624230286898e-01,5.978053390176790282e-05,-9.802991766556228725e+00
9.759418271858125715e-01,-1.984412986390886140e-03,-9.803887694176193435e+00
9.883159288545949606e-01,-8.954842333444509167e-03,-9.786869264485533293e+00
9.899777618767019449e-01,1.478438889192917535e-03,-9.800304621249408044e+00
9.856692079195323863e-01,-3.210248982649680990e-04,-9.791179979734087269e+00
9.863322703840975425e-01,-2.907576888898430380e-03,-9.791007495425207097e+00
9.913561423740657741e-01,1.415094286011044263e-03,-9.797771976771521452e+00
9.931695434085895391e-01,5.635725894252442128e-04,-9.788272825705146118e+00
9.778603156828056253e-01,-1.534558200738576038e-02,-9.792545660151381171e+00
9.966766577313099784e-01,-2.547120885668492478e-03,-9.790064467703405882e+00
9.975985731062272377e-01,1.840209937652934448e-03,-9.789827176502731376e+00
9.937505839437286159e-01,4.051176438349575470e-03,-9.794591227337688721e+00
9.960663399364034776e-01,-1.199953417857564479e-02,-9.798029277103074364e+00
9.889593993169925046e-01,1.047735934759225912e-02,-9.791212364773041799e+00
9.905718889299031105e-01,-5.412160019062253573e-05,-9.791956247933446988e+00
9.969428212420884394e-01,4.762876370728762014e-03,-9.789966440795073055e+00
1.000234353041215440e+00,3.119212322817381880e-03,-9.797797619259663193e+00
9.970667187513519991e-01,-7.403338731200051655e-03,-9.796269208042799548e+00
1.004611329443588108e+00,1.804193050546844864e-03,-9.793454827981966204e+00
9.916499405488706786e-01,-2.231040954810028891e-04,-9.791641975501297779e+00
1.002785335754459606e+00,4.323859544088017471e-04,-9.797806564237973248e+00
9.963580415138924007e-01,-4.704767758727293990e-03,-9.795172110419612110e+00
9.937516509756070260e-01,1.539594766684088210e-03,-9.787955074105223474e+00
1.003578778083132006e+00,8.316470895126725632e-03,-9.784572903300952973e+00
9.980301638049846602e-01,8.785124045755945098e-04,-9.794871142796774066e+00
9.985852994679285111e-01,-4.720244623342685587e-04,-9.801069644481694709e+00
9.916398502056568143e-01,2.980676736718469028e-03,-9.797586646254890397e+00
9.964246172885891095e-01,-1.079633351758801235e-02,-9.791255318134224339e+00
9.986514335396758923e-01,9.793923890465317320e-03,-9.792614440941356690e+00
9.953769954930221653e-01,7.772480200210391682e-03,-9.794504107495006551e+00
1.004355418238927822e+00,-1.627604191511622693e-03,-9.789801099475514690e+00
9.958754302582988327e-01,1.883928223121310482e-04,-9.792253105800778457e+00
1.007205352772513773e+00,-4.814662505017040274e-03,-9.790111999929083098e+00
9.952940774531189305e-01,-1.075913824146402988e-03,-9.798533297728800662e+00
9.931055668289061611e-01,1.467936690779089509e-04,-9.803847779262772733e+00
1.001050962524918653e+00,2.143180619988190733e-04,-9.791047414129250726e+00
9.983142127850123115e-01,-5.800871182660069774e-04,-9.795181645220198519e+00
1.013139249964730926e+00,4.784000181030597688e-03,-9.790839065852923184e+00
9.930803061825586031e-01,8.060422309107485514e-03,-9.795046811866997771e+00
9.906484635559399399e-01,2.499743268000653371e-04,-9.791258425396453191e+00
1.000583640400067642e+00,-1.111096183999474296e-02,-9.796302846146998533e+00
1.003049329552681224e+00,1.375316244134945892e-03,-9.792348501863674670e+00
1.007022789485696901e+00,1.783753732786230901e-03,-9.801020420242199549e+00
1.006537945389656796e+00,-5.456850620841636849e-03,-9.787705481560058374e+00
1.003325434954648765e+00,6.282301897405050128e-03,-9.802008760682685562e+00
1.003146319872376679e+00,3.059739171164348875e-03,-9.790964927256345263e+00
9.908129239945581146e-01,-2.181848167378164401e-03,-9.791035304378532089e+00
1.008051779599839159e+00,5.917725892096396953e-04,-9.793457242640602800e+00
9.988875016886643587e-01,-7.214812705866258591e-04,-9.790611345755177553e+00
1.006566407019513942e+00,-4.359032068854488615e-03,-9.789273026192082838e+00
1.004764467368153724e+00,-5.409922659562383176e-03,-9.788958472560125301e+00
1.001455108254751147e+00,4.196165625512446491e-03,-9.799569116250884449e+00
9.965260451842170575e-01,-1.020658048389919050e-03,-9.793479500620122735e+00
1.007811005776684921e+00,-2.206513973118909896e-03,-9.792965196925697668e+00
1.001097813028478001e+00,-5.222131820299146833e-03,-9.789390277746539581e+00
1.001553281557328257e+00,4.167267312494901156e-03,-9.792717281593098733e+00
9.979364097261720357e-01,-1.023467524866167495e-02,-9.800821901367619660e+00
9.984328218184088666e-01,2.003024818417484341e-03,-9.795531135400800338e+00
9.915451984562956289e-01,4.957267612166514105e-03,-9.789539116415628683e+00
9.987805729981813485e-01,-1.681797734001256543e-03,-9.802595934862663896e+00
9.963534621473300046e-01,1.277817358213050253e-03,-9.798667015199084673e+00
9.966587764700559626e-01,1.818138015837965880e-04,-9.789565816887439098e+00
1.005282514584493025e+00,1.001949867687976182e-03,-9.790744368601972170e+00
9.987864838158821978e-01,1.262715152527402141e-03,-9.797639526094988227e+00
9.994811855064020811e-01,1.759839736680158737e-03,-9.795935244283413112e+00
1.000544294606777074e+00,3.753569680285188427e-03,-9.795707246730570361e+00
1.007453683195148830e+00,2.664383695684862351e-03,-9.808147634140599536e+00
9.816748158976967842e-01,-2.601749383506218091e-03,-9.795873152236691084e+00
1.001158738607802468e+00,-1.577694044317905610e-04,-9.797285285917611830e+00
9.944157008376914852e-01,2.203491321014710170e-03,-9.787071713457971001e+00
1.004480102462137925e+00,-7.537238181064437673e-03,-9.798162184650477613e+00
1.001635958804882431e+00,4.427950651178704650e-03,-9.797778746193857913e+00
9.979216926411612620e-01,-3.302143345589203961e-04,-9.796622127195465879e+00
1.000026052488573347e+00,-5.355594104752328319e-03,-9.793542400403829618e+00
1.002830952111814167e+00,3.671521325010364614e-03,-9.797090473799746846e+00
9.867153061667189862e-01,1.641693968475677317e-03,-9.805119130677022454e+00
1.004657350030048413e+00,-3.055163163551461933e-03,-9.793877999042869931e+00
9.984714206537056436e-01,-8.520660843116159566e-03,-9.792962512360972482e+00
1.007548817912689465e+00,-2.545612786494766064e-03,-9.799674256516269111e+00
1.000394529603449767e+00,-1.050343860059380595e-02,-9.797393175760008788e+00
9.949600991635486613e-01,-5.416207669733908662e-04,-9.785300665824546940e+00
9.999773767484205766e-01,5.189986390024233127e-03,-9.799516745331924739e+00
1.004297034069007166e+00,-1.228142616377305742e-03,-9.794929859397401017e+00
9.919596766633927976e-01,-2.432504231656432364e-04,-9.798325256680213258e+00
9.948422935956537927e-01,-1.007837586314780723e-03,-9.801834736556047645e+00
1.001642455551142508e+00,1.171299287966539714e-03,-9.783895486107317296e+00
1.003099767424567190e+00,5.731232331743696048e-03,-9.798962658943246140e+00
9.867312763627320571e-01,2.882543120314053856e-03,-9.782850943391089515e+00
9.935329041701458364e-01,-2.763187400487681061e-03,-9.791951588035809451e+00
9.930532852215063766e-01,9.472218987094568540e-03,-9.793008623556231029e+00
9.928753270102611550e-01,9.210352343468692499e-03,-9.788498274130596144e+00
1.002367628072852623e+00,3.701782344268844584e-03,-9.797374234273974025e+00
9.983988454381589328e-01,-5.628523391279408690e-04,-9.785743764926905897e+00
9.958644211944962521e-01,1.839152822823119033e-03,-9.803079926891054896e+00
1.006866848614055510e+00,-6.423222161579148631e-03,-9.796976564983202351e+00
9.951776145503178350e-01,1.366326281866352479e-03,-9.786325150632551484e+00
9.976008651724580512e-01,2.198421926357962877e-03,-9.793594465269228166e+00
9.982293598386174915e-01,4.570427772167849796e-03,-9.801434915002460002e+00
1.003279883401152262e+00,2.366998467201309039e-04,-9.795807287461430590e+00
1.008865821939299190e+00,-7.381860972011520389e-03,-9.783685724920170301e+00
1.001503777947633456e+00,-1.021618989652467446e-02,-9.793199214767351890e+00
1.009140819897941910e+00,-1.584700423095011801e-03,-9.799517460148976511e+00
9.912231676483206355e-01,5.504471031689502081e-03,-9.795722104174100053e+00
9.943311158667529348e-01,-3.420607524858625299e-03,-9.788672198793733514e+00
9.982346984250762834e-01,-5.678593552243262847e-04,-9.794223072677606723e+00
1.006676452816901657e+00,-1.047203071552405516e-02,-9.791229631229111163e+00
1.003019223058095655e+00,-7.876893317462543495e-03,-9.790940133026822423e+00
1.002566022923933042e+00,-2.193432725326290500e-04,-9.791722574192315065e+00
9.840301429399541666e-01,-6.955617492004292218e-03,-9.796512274582342528e+00
1.002033378023933663e+00,-4.850906625108447959e-03,-9.797959988742835691e+00
9.884335164038470234e-01,-9.706188560154543985e-04,-9.792153328097393583e+00
1.000018220294610183e+00,-4.893645200612314373e-03,-9.793349261770353920e+00
9.983561806843769260e-01,-2.843654114325111807e-04,-9.799062278591277320e+00
1.000105906129692412e+00,1.476147922062921811e-03,-9.792890506581187537e+00
9.994651643377107098e-01,2.309004598594729691e-03,-9.797488547155539962e+00
9.970884740434386995e-01,6.113686470206800266e-04,-9.800116637493559324e+00
1.003981636999374816e+00,6.568135526828311997e-03,-9.785808428351643329e+00
9.948818608415784803e-01,3.420994728467901570e-03,-9.798301011369970226e+00
1.005085561338704414e+00,-3.635882445020876055e-03,-9.788263744693530555e+00
1.011579750116989862e+00,-4.177603862264536901e-03,-9.790671438733845378e+00
1.001358923600426332e+00,2.493996245611050655e-04,-9.799195397028652721e+00
9.983190789754253780e-01,1.306370700280280912e-02,-9.796074617443428778e+00
9.899496565561298755e-01,-1.624549353066553729e-03,-9.790561551453013323e+00
1.002756772478174740e+00,-4.367711155911630644e-03,-9.794121962369958467e+00
9.942691102428892203e-01,7.974017798020087422e-03,-9.787575990411955473e+00
1.008581772422937339e+00,-2.320381224586203417e-04,-9.799173289585834112e+00
1.003220916529162565e+00,-3.086189018315149343e-03,-9.791847931556977969e+00
9.998583231565431051e-01,-8.466657539363993401e-03,-9.796874510863112562e+00
9.937990548254929113e-01,1.473664734950333628e-03,-9.796273703198986382e+00
1.007952201121749214e+00,2.046135429421684984e-03,-9.792806032359195001e+00
1.002822025482664969e+00,3.849428374315693900e-04,-9.780878740930743831e+00
1.004847502866106801e+00,-1.577986510972148246e-02,-9.790516136136570680e+00
1.003680075867462884e+00,2.467418466947672237e-04,-9.792071092511955399e+00
9.968611069731455609e-01,-4.474398328915496492e-03,-9.790249122951875549e+00
9.900324856802128481e-01,-1.099753059658644012e-02,-9.797763106592233484e+00
9.957854428399756097e-01,-8.823016953412407548e-03,-9.795162398746914079e+00
1.003574616844384870e+00,3.500186395752600144e-03,-9.789041765502425108e+00
9.975776115325130089e-01,-1.962225046767268177e-03,-9.802107408939777500e+00
9.941015878547303508e-01,-1.449469465761858656e-03,-9.789753357266294032e+00
9.929797675417841862e-01,-7.530918202725473722e-03,-9.805974946534925962e+00
1.005983041296639291e+00,4.826886292985141207e-03,-9.796694031147101356e+00
1.006890435928779581e+00,4.305113435212736678e-03,-9.795668441878433441e+00
1.009283558037383344e+00,-3.266042136130390631e-03,-9.790450018234638563e+00
9.974845600824692182e-01,3.524429153536709318e-03,-9.789965242227987474e+00
1.000420259985386640e+00,2.052316079516022015e-05,-9.800732615778816381e+00
1.003020143155368471e+00,-1.613556685231194200e-04,-9.797910060274336530e+00
9.941774545292998422e-01,5.769963222848461387e-03,-9.796181371541491600e+00
1.004927334301658259e+00,4.030001764615348536e-03,-9.797503685060711121e+00
9.941923622258053150e-01,-8.132991253689141747e-03,-9.793575741888815855e+00
1.003577656061754420e+00,-4.834329560125774812e-03,-9.796650713190446780e+00
9.933815467104022412e-01,-8.438848850353173822e-03,-9.789423127948737147e+00
1.007888444139947826e+00,-1.247393313675153846e-03,-9.794123091020463079e+00
9.966942741810166373e-01,-3.649439059966624096e-03,-9.796358633106846625e+00
9.973937058743971296e-01,-1.533324987652543922e-03,-9.788428804137423000e+00
9.990731584721739278e-01,-3.568690565838764745e-04,-9.796737133318424995e+00
9.953946644038581537e-01,-9.066395796536695639e-03,-9.794613871344177269e+00
9.974771292856442484e-01,-1.410662351586339062e-02,-9.796854416895023121e+00
9.919967280992201264e-01,-5.995838179374721535e-03,-9.798918096076221218e+00
9.898270584691467588e-01,-3.134477197880874977e-03,-9.793124067267113375e+00
1.000797858880906555e+00,-8.993977925072187476e-03,-9.801333385102745765e+00
1.000959953622491794e+00,-3.135769725253900395e-03,-9.794291860772831981e+00
1.002147438956818126e+00,-1.057274793491365036e-02,-9.796493230809630859e+00
1.006124782662604966e+00,1.380242065574771798e-03,-9.799797856395274565e+00
9.974400473066248329e-01,-1.049610087784449497e-03,-9.792413455141169010e+00
9.976605807426340844e-01,4.453278397616020588e-03,-9.794513156168356716e+00
9.997868409217538499e-01,3.987913066551477051e-03,-9.797155021195257163e+00
9.946284412774573092e-01,1.481516380296226537e-02,-9.796309346982459587e+00
9.989964177125617573e-01,-3.949202553764456780e-03,-9.801744461192267721e+00
1.004692165677874671e+00,-1.084622309760919188e-02,-9.808150167780828710e+00
1.002098438839120975e+00,-7.047740120706307183e-03,-9.796787337335617352e+00
1.004039426168855886e+00,-1.793507763096465965e-03,-9.801172761870772021e+00
9.894600975999805481e-01,1.743548171409495034e-03,-9.798723727887798773e+00
9.866857498587540132e-01,-4.651334457988177788e-03,-9.797555021141038267e+00
9.964704741950325406e-01,-1.121351156499851738e-03,-9.795258630109135112e+00
9.972011724564029400e-01,1.087573168307411943e-02,-9.785174705725735222e+00
9.947618493303975740e-01,1.396878048905991505e-03,-9.794227740956028327e+00
1.002353300084199317e+00,-5.920461059247107347e-03,-9.800477945605180707e+00
1.005868436373891228e+00,-2.016518124603072348e-03,-9.785159764110726854e+00
9.911264644902902932e-01,7.371744282129932650e-03,-9.797408210602018386e+00
9.988104454523384357e-01,-4.839206339667085667e-03,-9.796724773677915721e+00
1.004210829050953269e+00,5.285719065516353114e-03,-9.790486871779869205e+00
1.002053776326826906e+00,7.511654534110433386e-03,-9.792830759316620615e+00
1.004068651591678352e+00,6.027650100976718155e-03,-9.792218319282417482e+00
1.000667916020803405e+00,-5.357462354100459359e-03,-9.788646199299426698e+00
1.002022204144096040e+00,-7.256583797155088944e-03,-9.803598149178363030e+00
1.003396753472193481e+00,-4.848622414666108223e-03,-9.787015865062322462e+00
1.007252685717378471e+00,2.819627928840847449e-03,-9.800328081749784204e+00
9.992870115063194891e-01,5.258836482059990255e-03,-9.794893092893065756e+00
1.002392976863977436e+00,8.778782179799236862e-03,-9.798172170660084390e+00
1.002112588391854242e+00,6.759616542102163915e-03,-9.791436294825967224e+00
1.002164243873789884e+00,-9.881834696112417205e-04,-9.791016339488832543e+00
9.965089958823064586e-01,-1.421414551677992535e-03,-9.800485099798187605e+00
9.959795082492428620e-01,7.461843814412805545e-03,-9.800164938417049498e+00
1.000887544614534441e+00,-5.024866967580856811e-03,-9.788359641893469743e+00
9.962290953758529133e-01,-1.150371933175506865e-02,-9.794971380850158837e+00
1.001536814395776576e+00,2.253938379218144768e-03,-9.803913922488296961e+00
1.003568580531575272e+00,-8.154836754895096896e-04,-9.797599682497796891e+00
1.003704133075334903e+00,-7.021787545161547670e-03,-9.794979301768796276e+00
9.964052269118627292e-01,-8.841053087025858934e-05,-9.788648493789830596e+00
9.954281961143587321e-01,2.964030669768484907e-03,-9.792010816308138743e+00
1.005334612868668431e+00,5.838404012186432582e-03,-9.790705898571301802e+00
1.002798526217380859e+00,2.143436860970698681e-03,-9.799421169003514009e+00
1.008439037820336281e+00,-4.868322508004278848e-03,-9.789275761500526585e+00
9.966609779892650067e-01,5.957647808299105325e-04,-9.791256601715742747e+00
1.002301995867075579e+00,1.472832419568287539e-03,-9.796835489876675851e+00
1.005522539895429057e+00,-6.047947119015861100e-03,-9.802307141100413901e+00
1.004542709542058043e+00,-3.390655828292457857e-03,-9.786944305561698698e+00
1.003813123348867631e+00,6.002524710250979958e-03,-9.789291481952899332e+00
1.009218120141263553e+00,-1.845182344044413083e-03,-9.796669691457603690e+00
1.009378842645911378e+00,3.887448704642347888e-03,-9.800856678136957711e+00
1.005345103479395430e+00,3.971238325696689001e-04,-9.791946022437240771e+00
9.991393390117646600e-01,-1.048653190612390323e-03,-9.798950560717807790e+00
1.002915639400689951e+00,1.831571394962328621e-03,-9.799553321714094878e+00
9.958943639058902564e-01,8.066140778535648564e-03,-9.798058007183707119e+00
9.916820695539927399e-01,-4.270467883176320284e-03,-9.796213889829273214e+00
9.999922184220628729e-01,2.102326952611330377e-04,-9.794200840717369516e+00
9.976342851967834324e-01,4.341379024196385591e-03,-9.781081091627532587e+00
1.001843846221065926e+00,-1.245835955248611590e-03,-9.798155412199772485e+00
1.007942910457995112e+00,3.523773781252609490e-03,-9.793486181245073752e+00
9.991093421259366059e-01,2.896068265935739482e-03,-9.791730522617754673e+00
1.001623755994323739e+00,-3.955249208299070791e-03,-9.788953559925118952e+00
1.002218312932608990e+00,4.162210081683408690e-03,-9.793455750414631567e+00
9.998306132273538926e-01,1.205676228204229615e-02,-9.792108583595195981e+00
9.970089738122493994e-01,-3.868042201032854781e-03,-9.783597217625954912e+00
9.967516223637673534e-01,8.465153011956069382e-03,-9.801818528961966592e+00
1.002587586841313438e+00,1.429701069203435752e-03,-9.798051312313756256e+00
9.942839056659853458e-01,-7.326950658993312436e-04,-9.795565097968264467e+00
1.000980977352974310e+00,8.814391232950688449e-04,-9.787243037498219778e+00
1.001137047987319839e+00,-8.467664620374832848e-03,-9.793210832115235576e+00
9.987930536446827379e-01,-8.255310906965240836e-04,-9.799436015144133094e+00
9.948546281782266743e-01,-1.387881731631202117e-03,-9.796179330062773971e+00
9.888266334903557109e-01,1.183342946382189400e-03,-9.794186069478245216e+00
9.923206688885669591e-01,1.986568086734984834e-03,-9.801859738497357810e+00
9.942254292127941095e-01,2.866856508987374909e-03,-9.803144493185767416e+00
1.005719319610991036e+00,-7.722470433090993132e-03,-9.795506852314240120e+00
9.903575634458375854e-01,-5.274787735152044240e-04,-9.791465537609278513e+00
9.920203986927449424e-01,3.414710997317880678e-03,-9.794035449921254965e+00
9.884979740864983100e-01,-5.403570828255007882e-03,-9.792198717077443604e+00
1.002329586008607665e+00,2.419516610943368406e-03,-9.788929174571388003e+00
9.989985753955555881e-01,6.824627088252041736e-03,-9.792372423044643170e+00
1.002128018986538915e+00,-2.767067425524371606e-03,-9.793760292297191583e+00
9.954562955770424049e-01,-1.451326275206415994e-03,-9.797503456712517433e+00
9.996203003761517936e-01,7.406869874983527859e-05,-9.799212197167195271e+00
9.968027618262892409e-01,-3.018813460885158562e-04,-9.792802505336249297e+00
9.956838803770363677e-01,-1.844768667647714994e-03,-9.790379911186413153e+00
1.000569479062153988e+00,4.432625898589248950e-03,-9.794564159406409232e+00
9.973064851504443995e-01,-2.648646836595614992e-03,-9.797681276049271304e+00
1.004860377754440259e+00,5.511746891698462991e-03,-9.798465665138204272e+00
9.936815039767422642e-01,-4.996881867315642808e-03,-9.788247759004065074e+00
1.006035008759421201e+00,8.658593834123090929e-03,-9.804897670549548749e+00
1.004858804214146639e+00,-5.937999060251527954e-03,-9.792733595125428181e+00
9.979620622910907457e-01,-3.915380601547187485e-03,-9.785114654928662503e+00
1.006335420049489393e+00,6.011471700380836662e-03,-9.787577956892320685e+00
1.000837564854521577e+00,1.645240393019106479e-03,-9.805957275580224675e+00
1.011507862038436789e+00,-9.929741029564620458e-03,-9.790329878573809097e+00
9.981454736995303278e-01,-7.712030129374583239e-04,-9.795628482296356410e+00
1.002421522929438424e+00,5.606670164105573111e-03,-9.790922839068699091e+00
9.969618173182461796e-01,4.818675265429285884e-03,-9.794490435685133889e+00
1.000523548903827997e+00,-4.368715802556089739e-03,-9.793645982608659040e+00
9.964389239298699907e-01,1.758947013329761845e-03,-9.791119238601556418e+00
9.934348047134111681e-01,5.801805285145452545e-03,-9.797444459165122410e+00
9.923926683697107398e-01,-2.007994545312182487e-03,-9.799569019914301293e+00
1.006228432221036639e+00,5.829775908544981150e-03,-9.796508175995615630e+00
1.000755010945293622e+00,-4.505649271362374871e-03,-9.800765015974828742e+00
9.924585402460351924e-01,2.304099355451098667e-03,-9.805791564480808020e+00
1.002033691708069441e+00,7.397005140261730949e-03,-9.807356675091726927e+00
1.002376851006712588e+00,-1.833932012127394498e-03,-9.793235095155246484e+00
1.003907876865621995e+00,-2.347374514224236271e-03,-9.793029437616540989e+00
9.962808451844478164e-01,-2.034341618717114275e-03,-9.790976543670888432e+00
1.001982923304655992e+00,-2.140006314689284900e-03,-9.794331070085243951e+00
9.979578333825877001e-01,3.110871161947144359e-03,-9.795194244480093460e+00
1.001564325568810476e+00,-7.715777514736159347e-04,-9.790272314559544498e+00
1.002705119971073700e+00,-1.013440547615933503e-02,-9.791663360697132390e+00
1.000332466385863928e+00,-4.297870513608718565e-03,-9.794221757129079720e+00
1.002536506363964186e+00,-3.818949831224494485e-03,-9.798131923312956459e+00
1.003545063672390603e+00,-1.147384119040127486e-02,-9.791180148711504216e+00
9.949680344832380063e-01,-3.851578073305752560e-03,-9.792583892118313926e+00
9.888650009394803764e-01,-2.446715530277948636e-03,-9.795434031663141639e+00
1.001650475357908077e+00,-2.099857464390440277e-03,-9.797067304687478995e+00
9.990887493278000075e-01,-9.808647792937186596e-04,-9.792772373791752472e+00
9.988337960591996412e-01,1.265234687697882211e-03,-9.798083256203790725e+00
1.001460380187527921e+00,2.622369885293581761e-03,-9.778440492203801071e+00
9.903042926105225519e-01,-1.527252956088192594e-02,-9.785695881058767753e+00
9.952972937037809498e-01,1.683391062100134507e-03,-9.799428679819813581e+00
1.001431280763998899e+00,-1.510608670133383336e-03,-9.797498548073043878e+00
1.008988546055704649e+00,-9.574827994527329578e-03,-9.793997743744867535e+00
1.001032721593688057e+00,1.271016483910179535e-03,-9.793319469919650189e+00
9.935789655714968305e-01,-8.072754796483240167e-03,-9.793828007099408595e+00
1.003744738224158217e+00,-1.073841922752751671e-02,-9.795413895470009180e+00
1.002472867928273281e+00,3.647459416230985907e-03,-9.793802988502589457e+00
1.010145957224530600e+00,6.321680348609118663e-03,-9.799906908335536571e+00
1.000347553459218330e+00,-2.796631773663308708e-03,-9.793238208063144157e+00
1.000426164305149968e+00,4.362308369444187553e-03,-9.793020890200610395e+00
9.971304991900499237e-01,6.204556948715068271e-03,-9.801837619396044587e+00
1.009103401837180725e+00,1.123054317973188210e-03,-9.801172295026876924e+00
1.005023814437353780e+00,-5.486616082226688715e-03,-9.792783686806965093e+00
9.991351875322864728e-01,-1.829665627572980412e-03,-9.791432982379927097e+00
9.894473813250780347e-01,-8.547959015474324018e-03,-9.790440079516272931e+00
9.889727998346445892e-01,-1.295719454176592249e-03,-9.798063953514565938e+00
9.987763490716229375e-01,-1.214702758208636296e-03,-9.799003237102313690e+00
9.977512104803381021e-01,4.048306303579872825e-03,-9.796509443109812310e+00
9.997068553814256742e-01,-6.886712896679161172e-03,-9.797047034320664594e+00
9.985688504636107687e-01,2.665318022014871550e-03,-9.793561625525933678e+00
1.002819331296896710e+00,4.240452466031220148e-03,-9.795777999180343087e+00
1.000780447213220237e+00,-1.116832865817272286e-02,-9.809020480507248507e+00
1.004606966974837423e+00,-7.937834297458278010e-03,-9.798833162872618630e+00
1.002632297515563931e+00,2.626794739952717159e-03,-9.793428114684925134e+00
1.005889450482396086e+00,-1.149246130553375871e-02,-9.797687712810425609e+00
9.977509132967130601e-01,-4.636551205707498818e-03,-9.797062359360818817e+00
1.001255902020927069e+00,-1.528445319763176852e-02,-9.790777119985749621e+00
1.006863506645797379e+00,8.536243136605135839e-03,-9.785040945336989537e+00
1.000886742554980557e+00,5.803169586951909334e-04,-9.792624727079630276e+00
9.973546209871436696e-01,-5.439388637250654017e-03,-9.792139256733529251e+00
9.898965249069019423e-01,-9.543414924083901477e-04,-9.799057563524579351e+00
1.007224062213846638e+00,-8.714363536676113199e-04,-9.797261586115926235e+00
9.983972526015898463e-01,-6.522648264772256017e-03,-9.800159294845261826e+00
1.002965655804555656e+00,-6.988225225179339403e-03,-9.797774132698785721e+00
9.982067899009673395e-01,-4.853365959300728156e-04,-9.798464698859495670e+00
1.005613697269119422e+00,7.039499569299241706e-03,-9.794753511513510702e+00
9.918220564442856713e-01,-2.790869889593723847e-03,-9.784567017971605551e+00
9.959934892098024628e-01,-6.089564813200692116e-03,-9.793982788261192951e+00
1.000749344466909108e+00,-1.683569713007367769e-02,-9.794990734137549282e+00
9.909185509027181871e-01,-3.835706523868939472e-03,-9.785757348001070000e+00
1.001349314551673197e+00,-3.560323943820735762e-03,-9.800039695499910053e+00
9.967935032082886337e-01,-2.466957479995026022e-03,-9.797771846803225770e+00
1.003647301724807539e+00,-1.040059874044687097e-02,-9.802224269861937955e+00
9.935765396944680194e-01,6.146848199399798651e-03,-9.790536154579246642e+00
1.006277687750982697e+00,-5.611884659919861087e-03,-9.796618265634910117e+00
1.001942931773743606e+00,4.886975385737079430e-03,-9.801170793183013430e+00
1.000106807570408041e+00,-6.128770935164953686e-03,-9.790646995278017073e+00
9.925920943054939993e-01,1.064500336123869705e-02,-9.791129934651351618e+00
9.989445240128096426e-01,2.055964063998974058e-03,-9.795605129410349221e+00
1.005606903032675303e+00,1.623665073850752167e-03,-9.791819819448370765e+00
9.944337165662637812e-01,4.602829427798591812e-05,-9.795271177305167498e+00
1.003435836023034211e+00,6.819213467943882612e-03,-9.794042349299999728e+00
1.005518577935245794e+00,6.260333053081532963e-03,-9.797275681887617438e+00
9.988155117839555563e-01,7.416192969287178569e-03,-9.795662200503052475e+00
1.005831154305321107e+00,-8.255606486446413934e-04,-9.795709884184365279e+00
9.981610706830791324e-01,1.496081182732492349e-03,-9.792917537485291035e+00
1.005433843378453984e+00,-5.531414407727856808e-03,-9.798111395166220206e+00
1.007935799164951352e+00,1.424502403778146785e-03,-9.796441747210179685e+00
9.912448288354305248e-01,-5.711801954033802337e-03,-9.790826458296248092e+00
1.003860826561332020e+00,-8.892040147350916551e-03,-9.802995378659147718e+00
9.958154396098466421e-01,-4.594984658472747556e-03,-9.792840199083409303e+00
9.952163874745275640e-01,4.382942980680119491e-03,-9.794903770322717307e+00
9.939346135018897188e-01,-2.897582058495122050e-03,-9.799544973303094153e+00
9.984245114197796145e-01,-2.436946141477429762e-03,-9.786718053302601916e+00
9.991456812260807174e-01,-3.666900480622669982e-03,-9.787092489819853469e+00
1.003180117726510723e+00,-8.243527981569041818e-03,-9.794813745718656151e+00
9.934942862981567258e-01,-6.415018995458935530e-03,-9.793124791703631260e+00
9.937521647888202248e-01,-5.114623333733811852e-03,-9.795996243659908842e+00
1.003218984279299120e+00,2.733366860059487265e-03,-9.795115641199267031e+00
9.989868005594281231e-01,3.894050392335045990e-03,-9.796298330643036678e+00
1.007986098356230986e+00,6.684485756827912399e-05,-9.792656789187772048e+00
9.996135933796927997e-01,-2.269178952922613381e-03,-9.801480401759857131e+00
1.001099981894476576e+00,-1.016234961193285789e-02,-9.798357965321553564e+00
1.009777771399738677e+00,3.711369792903471999e-03,-9.800039099580729385e+00
1.001867786975655816e+00,-5.730351432328059918e-04,-9.790274168741872174e+00
9.978065837616855172e-01,-2.093039882508136544e-03,-9.797507987104514982e+00
9.926536445571582101e-01,-5.167762735037724486e-03,-9.798219551746909062e+00
9.989325354166519455e-01,-2.407623359601241374e-03,-9.788555408117009193e+00
1.001306388127418456e+00,-1.998487900024571110e-03,-9.792859502338751909e+00
1.003500589264499920e+00,1.350202468913347170e-03,-9.795584292254751801e+00
1.002682804265850436e+00,-7.203027602013227114e-04,-9.780386221322679319e+00
9.993197147324623941e-01,-5.219716804177601359e-03,-9.787926437402994395e+00
9.992988756164009612e-01,-3.110174156731691265e-03,-9.789390359402970532e+00
9.963854807906703526e-01,-4.184922284615298985e-03,-9.794848402814618993e+00
1.006079869158732265e+00,5.607091834383594146e-03,-9.792083234452356066e+00
9.940495004172619220e-01,-2.050637034892552075e-03,-9.789493706692903530e+00
9.962880023843359023e-01,7.316292626748671472e-03,-9.800658789343430044e+00
9.910869056364560725e-01,1.696985109909942288e-03,-9.797742429757741789e+00
9.969660055704011592e-01,2.509504880546336008e-03,-9.791269586080849407e+00
1.003831506169555965e+00,-5.214954498952290018e-03,-9.789227659455795205e+00
1.004856498091360573e+00,2.628197679346354863e-03,-9.795901313115759734e+00
9.941659535330552577e-01,-1.317360050761142961e-03,-9.796383538089703080e+00
1.003479390233894319e+00,-2.144666167002957187e-04,-9.789551182890331660e+00
9.966378934520531141e-01,2.939467183934284331e-03,-9.792683765672377305e+00
1.003937190585917349e+00,-8.905490791985461868e-03,-9.804968705566738052e+00
1.006033434189874454e+00,-1.369044558675514304e-03,-9.791166837963043434e+00
1.008644903890952405e+00,-9.628308038068982347e-04,-9.799127187232542724e+00
9.953334595332611334e-01,-7.712504739928128985e-04,-9.793132130424263337e+00
9.935490536931702588e-01,-4.723622645411600703e-04,-9.789093589798035566e+00
9.944186414604995194e-01,1.016532282278866627e-03,-9.794677784753949012e+00
1.005434094082102048e+00,3.311284602854795006e-03,-9.794474024211632823e+00
1.000065492551522883e+00,1.327626302441652952e-02,-9.801548350291389156e+00
1.000281711914718930e+00,-1.806594713690087839e-03,-9.779544772684984011e+00
1.001387167983945670e+00,7.717896783382138803e-03,-9.799832369020098355e+00
1.005904901842351595e+00,-6.164238228269007698e-03,-9.792514695315489348e+00
1.003653826965184459e+00,-8.563004520402353950e-03,-9.800690996428224722e+00
1.000764043446773721e+00,-3.521677471178021480e-03,-9.799951756459750030e+00
1.005172656005455911e+00,-4.275046583752589030e-03,-9.797456672902191244e+00
9.992627738781199032e-01,-2.871645090783185800e-04,-9.790307413515220603e+00
9.871716793177379712e-01,-4.246049308558150388e-03,-9.789802585215992892e+00
1.002840857572403710e+00,1.189496322102599540e-03,-9.784127835117104155e+00
9.964528741154725644e-01,-4.022701938485612194e-03,-9.795707542279004088e+00
1.004653441135866299e+00,-1.016965841271888320e-02,-9.800812593733617462e+00
1.003946368925832111e+00,-9.491920936486630475e-03,-9.801744620933641627e+00
9.984176272270544050e-01,-1.920541570876831052e-03,-9.796741398470695472e+00
1.008738367340959341e+00,-2.459875712391727462e-03,-9.803337071743866815e+00
9.906577731099421857e-01,-1.468854292858736083e-03,-9.796160724380186480e+00
1.001221592161168905e+00,-4.354073512794112699e-03,-9.787367718970335417e+00
1.006686264758524851e+00,-6.592623352564099155e-03,-9.789724314659911997e+00
9.995401395619822882e-01,1.094315731852492715e-02,-9.805425015046148829e+00
9.999800287174681612e-01,-3.827100274982207957e-03,-9.796626508070758632e+00
1.004411747188233450e+00,-3.915037504865125301e-04,-9.795915821058084560e+00
1.007837347579143117e+00,-3.792571354759455976e-03,-9.797485647016051402e+00
1.001020898391054903e+00,3.886840344653888241e-03,-9.798587974591420391e+00
9.970084791658195833e-01,-1.691902106064806580e-03,-9.796919205248521223e+00
1.010314815569651081e+00,3.424821499440277531e-03,-9.793722113742681756e+00
1.004118057399314923e+00,-4.913883608125772795e-03,-9.798699377166469660e+00
1.000834237851058406e+00,-7.310871821773238036e-03,-9.801003775544176122e+00
9.951012986111466008e-01,-3.927713657141862838e-03,-9.797328939406456882e+00
1.005389339375965863e+00,-9.757890188639345430e-03,-9.796137455872790056e+00
1.002085432392638031e+00,-7.340779040993678471e-03,-9.796708451423237207e+00
9.945359317339207417e-01,9.527800230968814718e-04,-9.793462537448101912e+00
9.921642998916619938e-01,3.142739463628506976e-03,-9.786047783818343504e+00
1.004775195353219130e+00,-3.240292686607728224e-03,-9.792541028415833182e+00
9.931879906557155024e-01,2.667287259033370231e-03,-9.792052325113422384e+00
1.000224592265162915e+00,-5.784800318214404144e-03,-9.792772181332537684e+00
1.005156597984899092e+00,-1.028955904965341396e-03,-9.789750929980238325e+00
9.974044868391778174e-01,1.758095251366645481e-03,-9.793885359563047288e+00
1.004363489545980759e+00,-6.329405198345604017e-04,-9.794991062866079901e+00
9.913844659555587358e-01,-9.961673564629756894e-03,-9.802305871638470336e+00
9.964017059266029319e-01,9.779765600603109940e-03,-9.801384110413057016e+00
9.937914103921632325e-01,-5.142242476651313898e-03,-9.796288385593060255e+00
9.974954483321465393e-01,-4.812714943514271107e-03,-9.793864324079423866e+00
1.008108796711074451e+00,-9.093499172820117271e-03,-9.797529772309230722e+00
9.924453806615666229e-01,-2.508720571058487264e-03,-9.794224362032984743e+00
1.001735745069304517e+00,2.653460557813146214e-03,-9.793535710859744725e+00
1.003080945742463204e+00,-7.662408787023491409e-03,-9.804698528143870107e+00
1.005070727305329870e+00,-1.710956004787008919e-03,-9.803310595773394809e+00
1.000714455973586992e+00,-1.296196817745500982e-03,-9.794578940424973013e+00
1.006883807588057067e+00,1.113268411280131419e-03,-9.800714639594293232e+00
9.974331741442528099e-01,9.414769506060497242e-04,-9.796046901511203941e+00
9.951443494105315368e-01,1.605192297937613026e-04,-9.801142360937207698e+00
9.986108092453197527e-01,2.494670434398090029e-03,-9.798488842426701595e+00
9.940810612305127636e-01,7.226310000645994221e-03,-9.794641736871392723e+00
1.000472980211687402e+00,-3.412116573490703471e-03,-9.791442019344795966e+00
1.001034768896415184e+00,-1.348589305477752767e-03,-9.790908074479617085e+00
9.968436595931733368e-01,-3.960856979470486934e-03,-9.798754781287504656e+00
1.004872982691008998e+00,-9.073333522419804514e-04,-9.794364558779994567e+00
1.004439186571161713e+00,1.829914662130334045e-03,-9.795409301905639410e+00
9.978274126182087311e-01,-5.556954350747260463e-03,-9.785081565787761448e+00
1.006287678427006060e+00,2.923794442324657329e-03,-9.789949624493750946e+00
1.007648584213676424e+00,-3.219679618981268181e-03,-9.790233883277686289e+00
9.967776791086616628e-01,-6.003723181012176474e-03,-9.792508646725075039e+00
1.001672331941190652e+00,1.042511016447404074e-03,-9.792977750723638408e+00
1.001057782399147777e+00,-3.118387149078545324e-03,-9.795017212052931299e+00
9.960973686530747440e-01,2.947201616038599460e-03,-9.796257819960727531e+00
9.873112282609642909e-01,-5.655206083733217703e-03,-9.804942141404877631e+00
1.008258282501644842e+00,-2.233035118089201146e-03,-9.801293190137924327e+00
9.977921903003016402e-01,2.009474736496463885e-03,-9.800527861480018643e+00
9.950016075218509615e-01,3.345678468606098736e-03,-9.801599846900739266e+00
1.002760312002303866e+00,1.010064150505193478e-02,-9.802368504438193852e+00
1.003717271493502095e+00,-6.423441564481432303e-03,-9.796868391447773661e+00
9.927225242220181212e-01,-2.928018233339253198e-04,-9.795947643638225344e+00
9.924455675912406960e-01,-2.657417733327271762e-03,-9.794533233979855424e+00
9.915158158898564889e-01,-4.446894380136451677e-03,-9.785361997849008731e+00
9.958232503881261355e-01,-3.961892098318062737e-03,-9.795065285817315726e+00
9.921011304938799347e-01,5.421005547939861460e-03,-9.799575074338424230e+00
1.000058084886645382e+00,-4.065435327108345674e-03,-9.798405486003256115e+00
9.992709204181828841e-01,-1.935019736852459753e-03,-9.793575296901504856e+00
1.002777880250179665e+00,4.664326893407772130e-03,-9.793816237191158791e+00
9.991419529912063391e-01,-1.934215933284572867e-03,-9.790899519305414245e+00
1.005361991896643659e+00,-2.403442605606112559e-05,-9.799867070265502633e+00
1.002224177548231454e+00,-1.036197425921424331e-02,-9.790193609406264486e+00
9.989441517567602125e-01,-8.791845232858518447e-03,-9.791555632744756821e+00
9.951294044885325984e-01,-3.922488489717880847e-03,-9.800437841371692826e+00
9.836641643972645621e-01,6.128066593063924948e-04,-9.796092046897800998e+00
1.005607570986321697e+00,-1.537047617312974936e-02,-9.793890102341581638e+00
9.953742992543521684e-01,-2.425238735864294545e-03,-9.802289641275095278e+00
9.977833560577190619e-01,-1.235886279887961608e-03,-9.797098824238368309e+00
1.002724194566188665e+00,4.877861175435074283e-03,-9.803269071750770891e+00
9.977326363751861660e-01,-8.901139158467572584e-04,-9.794944025479907168e+00
9.861484954873800390e-01,3.067857690174011047e-03,-9.799561242608424649e+00
9.967887995816073765e-01,-3.502642196753871263e-03,-9.797412063513332825e+00
9.970310922121528030e-01,1.182313765378036280e-03,-9.795901224892743286e+00
9.923351390357276758e-01,-2.210348515809492341e-03,-9.803661095956835325e+00
9.999585065662180972e-01,-7.686810744963372757e-04,-9.794479070964857925e+00
9.930551530796365434e-01,-7.214092268104067666e-03,-9.798964035798482186e+00
9.975074328950797042e-01,-1.024094959233048377e-03,-9.803904057099012803e+00
9.974406885031388281e-01,-2.226084162526190992e-03,-9.798650753220657705e+00
1.007576524715684041e+00,9.214987744354981303e-03,-9.793990618294861505e+00
1.001348943784207579e+00,-1.648635889335470922e-02,-9.795203650864687361e+00
1.002524965978295990e+00,6.794742840091573446e-04,-9.800498012696253980e+00
9.939291243217418526e-01,1.121300225300962119e-03,-9.794621624779233926e+00
9.968936677003148450e-01,5.153430532153930807e-03,-9.783552758395474669e+00
9.926598376740870533e-01,-4.162345448814504245e-03,-9.797132713385865443e+00
1.007891544126075400e+00,-3.174333549487077036e-03,-9.795525965599422236e+00
1.002064149629368739e+00,1.860131316985104725e-03,-9.791255638177425169e+00
1.005198817440778658e+00,-8.905573200724379787e-03,-9.797877103149023270e+00
1.003218772898530009e+00,-7.609883796686929547e-03,-9.789472790927840506e+00
9.939387716508969461e-01,2.534619842883952413e-03,-9.800281209809835303e+00
9.998238604182925204e-01,2.186676669083732674e-03,-9.798218101440799188e+00
9.951381302988567823e-01,4.953888854557577520e-03,-9.805290337651189958e+00
1.006820122149296726e+00,3.447807496422016990e-03,-9.797692494835162691e+00
9.966688975066179124e-01,-1.942400030613102273e-03,-9.802088970024712467e+00
1.008009754336653074e+00,-1.394238987440546071e-02,-9.792100998474278839e+00
1.001178707957009362e+00,9.599897847683365806e-03,-9.802184963763316716e+00
9.930302841223513921e-01,2.506169641513492433e-03,-9.797600114032913865e+00
9.973049100979805015e-01,-3.054797010664826382e-03,-9.798891745996057168e+00
9.919856587302177120e-01,-7.005783356135639010e-03,-9.793643493580875159e+00
1.003371399146410825e+00,1.210218440391558174e-03,-9.802383196657201481e+00
1.008291204467532953e+00,-1.096970086889295821e-02,-9.804705774823649023e+00
9.945005730996236970e-01,2.651354321347074681e-03,-9.802200331094329755e+00
1.000487958112028952e+00,-3.303066865227919594e-03,-9.795206853073926467e+00
9.982728150310457016e-01,4.771874385610949156e-03,-9.789450394924905652e+00
1.000753911204614877e+00,-7.990076765118710178e-03,-9.793421682151244312e+00
9.975772765587115343e-01,5.794474597018122852e-04,-9.797275401656538207e+00
1.001311407201307846e+00,2.969017048451522318e-03,-9.796878821191862485e+00
1.001322358864073170e+00,6.750193088362248760e-03,-9.796325603978818464e+00
9.930428001102733493e-01,-3.475630372003958839e-03,-9.793782128975806245e+00
9.909214024462111858e-01,-4.279344064436833503e-03,-9.795043042481578865e+00
1.004824837214178812e+00,-4.274881292533855986e-03,-9.800080314830461603e+00
1.001377442390357642e+00,-2.555193062611186942e-03,-9.800213682083956712e+00
1.005677346955669460e+00,-4.897521761292748625e-03,-9.791935079348936810e+00
9.957089301347579191e-01,-5.884297358391006030e-04,-9.796837087869052496e+00
9.933505557504793693e-01,-4.581039220031777812e-03,-9.789456745899125067e+00
1.000457444599269552e+00,-2.003690076306715966e-03,-9.789221273929506140e+00
1.001679310942658940e+00,-1.812657596619180779e-03,-9.804626227289752194e+00
1.003699522445168801e+00,-4.240894363040632539e-03,-9.796174118489707539e+00
1.003480067376895102e+00,-1.184839811551405449e-02,-9.789369840747840001e+00
1.003029688610466152e+00,4.704717778852481394e-03,-9.802097139673531245e+00
9.996838491045100250e-01,-1.229820038596592981e-02,-9.799309005028892017e+00
