gyro_x (deg/s),gyro_y (deg/s),gyro_z (deg/s)
-2.734880744339682201e-02,9.349730270337537619e-02,2.974731212670565783e-02
-8.181349563908001110e-03,4.795595842484789983e-02,-2.512274632683751305e-04
3.718916122168818700e-02,1.919579017664683682e-02,-1.934965146562318827e-02
5.935942694435222128e-02,-7.492767292259609746e-02,5.371906575099576198e-02
-5.445478859555979989e-02,2.010609358182966280e-02,4.238966359201347400e-02
-2.683761757805345691e-02,1.547061396887257703e-02,-8.367365979576251583e-03
3.873320559822857057e-02,3.868043387201692412e-02,-4.199332668618852189e-03
3.318797589437592899e-02,-8.006474983276208601e-02,3.119100811566642706e-02
1.315962813335956605e-02,-1.154231540568768054e-02,-2.064042869303782737e-02
3.754859347468261083e-02,4.685670090694190465e-02,-2.691555169837151276e-02
2.340903478314522446e-02,-3.465318094770312995e-02,5.550926007182906477e-03
4.085595310291972176e-02,-4.379031948977551297e-02,2.501489571302946066e-02
4.552053100246089556e-02,-5.353888034074638647e-02,-3.638875078228362425e-02
2.240452419723151789e-02,-9.453210886213311154e-03,7.039887645871442667e-02
6.688641310763236703e-02,-8.373801342271553275e-03,-2.544524702537378710e-02
-3.194305822834336839e-02,-2.717073192120275302e-02,9.214398402820914158e-03
-2.737942158655597147e-02,1.469199055512589863e-02,-5.052537164228498162e-02
4.473042144779663248e-02,3.512504568819212279e-03,-3.801545122151950978e-02
7.817741062686024353e-03,-2.921352221954976423e-03,8.202710759122600059e-02
3.015124962581706980e-02,-7.005535308891560134e-03,4.126948456296906237e-02
-3.135176776505689544e-02,-1.070023147131344242e-02,-4.151245430051683782e-02
-3.352470205197886910e-02,2.764424340306890701e-02,2.272166179835618041e-02
3.843413647413780609e-02,-4.210026732218109108e-02,3.012424039251671449e-03
-5.813580673105934321e-02,4.848497845238906173e-02,1.115950752080207588e-02
1.914994239376302532e-02,-6.999885293999448532e-02,-1.299789704166029979e-02
-6.905772493646512682e-03,2.104639495342503289e-02,-4.661075734816703259e-02
-3.264464408256934069e-02,1.426290624286708983e-02,-2.157155466529479121e-02
-1.594970895919725282e-02,1.595607326143094057e-02,-8.110971418171701933e-03
3.322743905602586895e-02,-3.331343338959259770e-02,7.828635714299291004e-02
3.224887803329676284e-02,4.862269526191251995e-02,-1.718387575095437284e-02
-3.301564938146246686e-02,-6.133643244826834234e-02,-1.147492030417483072e-02
2.466922251332304486e-02,1.257296177643945079e-01,5.593986932239225496e-02
1.860504359405126124e-02,-6.660705406593504796e-02,3.108658189101862548e-02
2.002776743353050851e-02,4.258050681402948678e-02,4.875363610842795015e-02
-7.320784228122353965e-02,-3.881552886934798441e-02,4.180532884048021591e-02
5.462312423092505892e-02,4.565823304556067275e-02,6.839712848429709002e-02
2.082715806710392845e-02,-4.493566949007855860e-03,4.464977129692750644e-03
3.912513145742350928e-02,3.613338759355649854e-02,1.110095828103372165e-02
3.179749594620775999e-02,-2.855686480154880080e-02,-8.347668737016052110e-02
-8.984603273089240838e-02,-3.507453154353221136e-02,2.708640562810225166e-02
-1.251327655683802040e-02,3.048228524098475431e-02,2.815129185157638075e-02
4.668294830338181461e-02,-2.529500123943586795e-02,-9.721701575181543320e-02
-6.820454353634362865e-02,-9.973974587806921921e-02,2.987583015129962813e-02
1.766157953650859466e-02,-6.031582401320336080e-03,2.872676130197462929e-02
1.001632676399210643e-02,-3.044540655475571483e-02,2.090676028324644359e-02
3.086708901372259891e-03,-6.280082117719557391e-03,-1.678465455708359755e-02
9.390565003247957699e-04,-7.144775998984659315e-02,-1.272872192573492323e-01
-2.112394143493278795e-02,1.475774807550665930e-02,-2.324099472384745513e-02
-2.714989891739986311e-02,-1.785937243148666073e-02,2.473861164825312542e-02
-5.365090195219893165e-02,9.662730328287622364e-03,3.424532669588545991e-02
-5.340131423600361950e-03,5.375671889079822879e-02,2.170784503790045006e-02
4.076039011383560118e-02,3.729592713673680806e-03,2.123807278292564812e-02
-2.904645578084279894e-02,4.627180977003665652e-02,3.481654148864161968e-02
1.600622826069032084e-02,-3.158176742798531056e-02,-2.293225588057292222e-02
-1.485177874569690130e-02,1.607435707228351343e-02,-6.967703692440190694e-03
6.700449027580110753e-03,-4.552012580075008585e-02,-2.393614099682610588e-02
-4.210640342551130884e-04,-7.143646312548283805e-02,5.452227695748607800e-02
4.849752836724994381e-02,2.465634932875516994e-02,9.614966067841645980e-02
-2.599918095242055582e-02,-1.722403922331388129e-02,-2.899678632025253638e-02
-3.119509162000618299e-02,5.486866382168936046e-02,6.358284897002830505e-02
2.999104620829451742e-02,-2.901075702632885042e-02,-1.419218709429283937e-02
8.058249675074710683e-02,-1.168879732602963809e-02,-6.154940606150822308e-02
4.237812835334529155e-02,1.412831284941506397e-03,4.096975626174618329e-02
-1.222069464642744005e-02,1.276282243378918518e-02,6.648577875898775691e-02
1.773475484134456100e-03,2.603002572214828045e-02,4.278972084121862585e-02
1.194230227885911474e-02,-2.520297757578138578e-03,-7.638698819663360118e-02
4.271425174468512082e-02,-4.920086962327779867e-02,-2.618801053520279296e-02
-1.446909756832162781e-02,-8.475567914204713837e-02,-4.972441671098171839e-02
-3.283031397037545346e-02,3.854366373263911120e-04,2.301534636130991504e-02
4.808159223471205300e-03,-9.949247123681285304e-03,2.291453812432986056e-03
3.107615119882378013e-02,3.319306973597977578e-02,-6.619974987933321779e-03
-1.255394845541176309e-03,-1.066174763057557706e-03,-1.043919827786669169e-02
2.482231612984641192e-02,-3.409587519329221501e-03,-5.699437171882372477e-02
1.853366972513753597e-02,-2.708105750034107626e-02,-6.622003357278476166e-02
-7.308933335300435430e-02,5.066816631053412678e-02,1.437558712287284879e-01
-1.374288283278494484e-02,-3.640018932346419933e-02,-2.313251720989549509e-02
-5.561009058398178745e-02,5.412621418041247551e-02,-4.460143653655089524e-02
5.905324722600580056e-03,-1.186460635285663430e-02,-3.491146398796675463e-03
2.375104703239842852e-02,-2.461626809050214762e-02,-8.676415727885489551e-03
2.436118796307805857e-03,-4.205373029746504836e-03,-3.553457773807074810e-02
3.849555210072643646e-02,-7.370555444093625230e-02,-6.181102908712784311e-02
-5.262334658054366315e-02,5.940337957946979081e-02,1.429175953907445284e-02
-6.747344285814386652e-03,3.312768593967584108e-02,-1.326789451673906529e-02
1.487446691210948628e-03,-3.145464398958855694e-03,3.594790640497669970e-02
3.265108188368501252e-02,2.962556458969041115e-02,-1.649860520003270520e-02
-2.510852610226844625e-02,-3.714977715759150423e-02,-2.872078646002044957e-03
-2.865129428055868469e-02,1.120609515538460894e-02,2.634892723306803131e-02
1.543129672952911306e-02,-2.059846536050950749e-02,3.655749716650729536e-02
4.918659932914495880e-02,1.138454039211892789e-02,-2.520724093529970022e-03
3.716644537957063121e-02,-6.675903025370344412e-02,-1.538855144725913837e-01
1.134874563040171591e-01,2.925419392148128836e-02,2.497024343338125757e-03
3.075556142804582518e-02,7.636203706086044929e-02,-4.032919029776780434e-02
-4.965863171401535374e-03,-1.839780188872373878e-02,-2.288729602673035546e-02
-4.023592438663139287e-02,3.995889098956389995e-02,1.517265562230855035e-02
-2.929072250552295850e-02,4.163831566009966456e-02,6.885738524988881115e-02
8.245501404929821143e-03,-1.338201912785753206e-02,9.614400384410550643e-03
1.713350212187540744e-03,5.005043076675010083e-02,5.131635629641597557e-02
-8.714742063875699496e-02,-1.746018802149689256e-02,7.177703636800475406e-02
1.758594872346201654e-02,-6.775213882539055273e-03,-1.471817150351956496e-02
-6.232675634010313714e-02,8.055220252594792740e-02,-5.253977928392446900e-02
2.646827448906643662e-02,-6.250011908593446075e-02,-9.266420345620732246e-02
9.536855569833826984e-02,-1.889907347300506107e-02,5.736245378354679764e-02
4.482160855692341600e-02,6.912136004969839098e-02,-3.286348990926334177e-03
-1.544930615082123343e-02,9.468574115840065406e-03,8.089343938826727004e-03
2.105095258949928744e-02,5.370386791446813031e-03,9.067800803248382557e-02
-5.502174936812691958e-03,-2.957363741041106261e-02,1.385022489021129309e-02
2.965799865834149729e-02,-3.020343633061874783e-02,-4.503567056453446765e-02
1.329153986530726833e-02,-9.680151758483140911e-02,-1.218111850853949643e-02
5.917911252742590056e-02,-2.154440368637668829e-02,5.204613984121921836e-04
6.702653037321830778e-03,-2.207699394754582267e-02,-3.663863643775656931e-02
3.319147691117193405e-02,7.328367993779970335e-02,-6.948108092888805043e-02
3.936612259824953663e-02,-9.964980128484473079e-03,2.631528658841899779e-02
-2.518961041144184704e-02,-2.976612225590094182e-02,3.589016733265933817e-02
-4.225113343342740829e-02,8.407576416744600573e-03,6.763040157553625031e-02
-3.965766776268109597e-03,-9.397635610120923938e-03,4.881354708463887110e-02
6.204491442915833696e-03,-1.654646131077569526e-02,-6.962982000491825529e-02
5.440115528579921728e-02,2.199982122300835410e-02,-2.557521452815373492e-02
-1.436716278910031910e-02,4.298094401870015957e-02,-5.218769369186789485e-03
3.830539146543316537e-02,-6.894372822631743281e-02,-3.685066476631192189e-02
-8.740739812935738318e-02,1.412287188888273863e-03,-1.683182114013378333e-02
1.594885494199406104e-02,3.438147902763354774e-02,-2.941923254930910517e-02
1.398802790312508870e-02,-1.789303391354811132e-02,2.504412076531468620e-02
8.539421373139251259e-02,2.052595141897388051e-02,-7.922063768305856457e-02
6.364937197718702200e-02,-9.769150437665846676e-02,-1.814438822855955757e-02
-8.893361252037933207e-02,-6.197735763970060830e-04,3.715517009770020335e-02
7.352514827562260137e-03,4.230398053000541947e-02,3.839287333254057938e-02
3.078388620902995990e-02,1.591756860738113150e-02,-4.290797739888570911e-02
1.300645907303340371e-02,-3.653671568591518315e-02,-3.254043239898486012e-02
1.731540577108105217e-02,4.329382582307137600e-02,8.682929238738748209e-03
-2.156970406484514866e-02,-1.675566536500172621e-02,3.820849997316527746e-02
-2.576856016993922874e-02,4.108643751785980014e-02,-2.031120003175617209e-02
-8.457939125843817740e-02,-5.319544057760765277e-02,7.212730016888953440e-03
-1.158990048525418773e-02,1.520535001568030890e-02,-3.601153486782742580e-02
8.679765648128541164e-03,3.884910241392657004e-02,-2.869105428699289875e-02
-3.267883236380211831e-02,-3.078356315957034138e-05,-6.152406000220158461e-02
-1.156900933420723122e-02,-2.137646979440437425e-02,2.448215367698770850e-02
3.062033809178164173e-02,1.250470833391137057e-02,9.869850024492947058e-03
1.617551006067994776e-02,-4.119709892124236508e-03,-9.637736529698313903e-02
-2.498592270844753743e-02,-1.966686664613993135e-02,7.971277728221431644e-03
-5.211277167327661025e-02,-8.057131889280902751e-03,-3.374658419180392999e-02
2.848517614680108959e-02,-1.319027299986784071e-02,-6.952405940660958024e-03
4.209259504742760699e-02,2.115242607910371164e-03,-5.648588096229384230e-03
-6.297575857153778212e-03,-5.315944604585912808e-02,2.921256725772829882e-02
-7.097980092226288500e-03,1.940426513207508044e-02,-2.043988766930312367e-02
-1.775793497781531663e-05,4.537769503862652820e-02,-3.943583800114845023e-02
4.504543967981709807e-02,6.137213682296657410e-03,-1.986725601292927898e-02
1.052375486573931158e-02,7.856495854322735617e-03,-3.030242622448049532e-03
-2.416279960319042621e-04,-2.543478431708052177e-03,-3.086048882472189336e-02
5.408722586052840814e-02,4.517142525385918483e-02,5.552944549858480211e-02
7.671258044637234430e-02,4.808447888121217956e-02,-4.786864857123696027e-02
1.305093084843764184e-02,-3.947155141377808873e-02,4.639135286285876042e-02
-1.675758823832663178e-03,-4.600955536021722470e-02,-3.988722913622721328e-02
1.263208098061738022e-03,-2.290588569866973748e-02,2.434102392272690513e-02
-5.771308005284150021e-03,-8.449618116871251972e-02,-3.769303519581006581e-03
4.908971793640865000e-02,-9.649933170650482062e-02,-7.502490259518854870e-03
-6.214906091072681937e-02,2.022626525126293429e-02,2.103034139895512342e-02
1.463283979346293243e-02,-8.364768507040369616e-03,-4.494085140306956078e-02
1.564667556108371646e-02,2.321014797834930476e-02,1.003392237660152980e-01
1.108900216761959413e-02,1.852730462109946491e-02,3.881063932935094329e-02
4.530085686567829166e-03,-4.865291338096586204e-02,5.819050102605787672e-03
6.609752293083923091e-02,2.965068806070872767e-02,1.991616676507765304e-02
-1.271209063849186929e-02,4.376339850526359335e-03,-9.644601990896070967e-03
6.057197293763533219e-02,-2.229204469540829736e-02,7.902443630683249343e-02
-2.466477822603843281e-02,1.695220348224968365e-02,5.409092211670462301e-03
-2.463588095518741417e-02,5.847463109992363101e-03,-1.368875693340425026e-01
-2.070531277834479489e-02,2.211397335417601348e-02,2.014003148203551488e-02
1.413573827526290981e-02,-5.168669589798206843e-02,2.556134232175335044e-02
-2.205292966149510064e-02,-3.037060355648684828e-03,2.679940518550543230e-02
6.150360630970467396e-03,-3.009281674862738024e-02,2.958851685343658749e-02
1.766701336994028898e-02,5.380925733644645846e-03,1.967838157348004297e-02
3.113837953065521150e-02,1.020894475566529701e-02,2.319972624915288273e-02
3.439086084962553191e-02,-8.258671562855013012e-03,-3.321525508924672021e-02
1.842453418579219349e-02,1.975075675954102161e-02,1.894201006599209244e-02
-7.449738011561309048e-02,3.710999759048809465e-02,2.889350152925536028e-02
2.460686488678833286e-02,3.700810843683535051e-02,-2.299925816896791070e-02
-1.519654849331609180e-02,5.096392163351992632e-02,6.255902215098932406e-02
1.879191200683561283e-02,1.779861178254950327e-02,4.631233089156560484e-02
1.724885407977553436e-02,-3.145924986395971790e-02,3.521992250199295141e-03
-2.486049875723886013e-02,-1.318984442940102260e-02,2.546601207080183629e-02
4.251456901301652047e-02,1.773669081858224653e-02,-2.256200691242718839e-02
1.395349958200729767e-02,-4.225761858055985393e-02,4.993078107499925380e-03
-1.342913779403197803e-02,-3.384674185810131880e-02,4.449154044574155087e-02
-3.292179265197737320e-02,2.476400876915077834e-02,4.857242792644977242e-02
-2.507438965038698633e-02,4.524211233008649385e-02,1.299902170272539993e-02
-3.482662311450250656e-04,4.733479285295993239e-02,-3.738958754521358278e-03
4.211308787354380023e-02,3.336854242424300288e-02,7.098469749598906864e-03
6.408395747219748639e-02,-3.693521879060607943e-02,4.366044808729746540e-02
-5.303298003558165608e-02,-7.641380227772897465e-03,7.171099162351548227e-03
6.283970063981217380e-02,-1.033457472242094687e-02,6.804275675633746079e-02
-1.569514169896785161e-02,2.828138297844866658e-02,1.951953401961148415e-02
-2.879294584106351085e-02,1.733617853366083844e-02,4.570755692736363368e-02
7.668131065089309195e-02,2.681175545912412722e-02,-7.254303406392337283e-02
2.419287076759933652e-02,7.387978923401115894e-02,-3.122268666370563855e-02
5.714959335682391617e-02,2.542626694142879201e-02,4.446478865682041912e-03
-8.527506149497414423e-02,1.337356178817880256e-02,2.660595964140804320e-02
2.585386739117915590e-03,1.162064763659161060e-01,-2.202528521059837416e-02
4.127136201852143332e-02,-4.177840091932535221e-02,8.161694890224349686e-02
5.574464938524793800e-02,1.238915503162450575e-02,9.480054237288604302e-02
-1.989693320273604182e-02,9.716594214561134757e-03,-5.541308012519106929e-02
-4.702210491099836909e-02,-9.281209927008750304e-02,4.611255264098527984e-02
2.834427250392700798e-02,5.148045256583011313e-03,1.757840486063537433e-02
-1.367294958693795158e-02,1.149823023553481877e-04,-7.496909437261815856e-02
-4.286398651884350264e-02,2.856665657630677937e-02,-4.916526205339975114e-02
1.536617019569392825e-02,-1.014886577249744272e-02,4.691380531658996544e-02
-4.895820138545566025e-03,1.735216901610130841e-02,-5.993902043594157708e-02
-8.351781615628729727e-02,5.211577662485989554e-02,5.177583411690020107e-03
-1.756377176508927551e-02,4.378670534681677190e-02,-3.615899858926027721e-02
1.141396728169788823e-03,-4.698169710496361701e-02,-3.747127043908394378e-02
-5.716142795604035355e-03,-5.586755709554941385e-02,7.355833709208899063e-02
-9.517980755807934137e-03,-1.421219515091877092e-02,-2.886318782806051794e-02
-3.531567575431101419e-02,-4.256933550044382508e-03,-1.200003596606675008e-02
-6.856174184524317303e-03,-2.171789318788593104e-02,-6.030623334247050410e-02
-9.184255547403091802e-02,-4.413434818370021162e-02,-4.738838756267052532e-02
-5.756974519228013482e-02,1.342222878937356645e-01,2.404740067271895002e-02
-4.330543953496924364e-02,-1.456846396692626153e-02,-4.144058756373231178e-02
2.286147907608786570e-02,-6.240228185234912052e-03,-2.785306002870798631e-03
6.987540720643797658e-03,5.000396154158159162e-02,2.736584977871639457e-02
6.405509852806990810e-04,1.003341976613288389e-01,-5.136898635221165584e-03
1.115351066210333170e-01,-1.935044546742476293e-02,1.798224570098056613e-02
2.882083882710170103e-02,4.646593006963145589e-02,4.919466758769807518e-02
1.453337425510746635e-02,2.036323169243331108e-02,-1.288919461451811313e-02
-5.295945385307247039e-02,2.848102131402296261e-02,-2.704136383753272602e-02
-3.164420841877565310e-02,-1.024462861731367108e-01,4.561431410692250513e-03
9.759930501775922196e-02,5.759653969071913682e-02,-4.640234893959013091e-02
-3.269572533662324504e-02,-1.835680728204263160e-02,5.226669644705798229e-02
1.859978219176535580e-02,-8.188793997176316113e-04,-1.092472411349271200e-02
-1.102002921684098503e-02,-9.241775675261061293e-03,-6.425019433948839231e-02
4.664617715966037914e-02,-6.828497487492262916e-03,-5.746895629070944422e-02
1.387779633837716090e-02,2.670449888191653298e-02,7.009767164361060433e-03
5.144389921738618671e-02,8.160490357909455650e-02,-6.738071106694505652e-02
-4.608913866036600665e-02,-6.442571867991570000e-02,2.434167958098966064e-02
7.176146880674630357e-02,-4.856291358364582533e-02,-5.107140413151298186e-02
-1.255283386736827898e-02,-1.722681750877734855e-02,7.935586409093584037e-02
-3.520196758880743404e-02,-5.923640451931694306e-02,-5.910412678930210967e-02
1.527578896488212363e-03,-4.069271140518074953e-02,-6.299055150583320051e-02
1.047364764922347619e-02,5.948333685315555092e-02,4.501526417307644828e-02
-9.556012037803289158e-03,-6.297765645301514614e-02,-1.500495465742427564e-02
-2.866915089230874167e-02,1.295435519319942594e-02,7.247568693342025525e-02
-1.343022182874690183e-02,-1.805949378563255448e-03,4.110689246548410863e-02
7.557283517047920507e-02,-2.208021810873717072e-02,2.692351563651598084e-02
1.940883082321108802e-02,-4.935750291157822711e-02,-1.156233867323174479e-02
-6.536785928976897309e-02,-1.524827666038014971e-03,-7.110778038485546237e-02
5.862206662603906826e-02,5.159308770693887434e-04,-3.091314206731467576e-02
-3.473834329979810093e-02,1.245416384884777232e-02,-1.173430542502928303e-02
-5.460991275766062525e-02,5.350507761620544589e-02,4.097730692127011382e-02
-3.157035690441191422e-02,-2.435622552218775702e-02,-8.966675055733350219e-02
-4.806561722567404688e-02,-5.658004340919529918e-02,4.425042683556708323e-02
-1.203567982280540766e-02,6.582261285808431450e-02,1.704410335517329844e-02
4.978800125836974066e-02,2.698242553008313623e-04,5.856787146625472631e-03
-1.705820145971465029e-02,7.228111278541649335e-04,-3.220428662990140745e-02
-4.854513574228646461e-02,-4.716585642855030541e-02,-5.446939002758371950e-02
3.750053399582351649e-02,-8.325498101016775426e-03,-5.282319205864366429e-02
-6.464171519147703104e-02,7.136625590968098676e-02,-3.649226250305515756e-02
-4.979967307591142561e-02,8.349033200052748127e-02,-7.781458653468190101e-02
1.971915463038104860e-02,4.383525842890800134e-02,-9.742229791168307770e-03
-8.499997374843229828e-03,2.023147515207655844e-02,-1.819400199700277332e-02
3.113202678555331351e-02,-1.309727015044812211e-02,-6.133612530818603054e-02
-3.732152097157751675e-02,5.815078566757171663e-02,4.151630417313950661e-02
2.955251992495800881e-02,1.032168521795991155e-03,2.453503045861729973e-02
2.820717272113643093e-02,-2.832831392962169986e-02,-3.400019269424674889e-02
3.090891198668649364e-02,-1.157970709439793411e-01,2.436418975118152808e-02
-7.244515004456369284e-03,2.243634715972161325e-02,-5.171830618083358977e-02
5.196440276494838223e-02,2.381167654879917661e-02,7.028711410531056358e-02
-4.021725078505486439e-02,2.358395275263450511e-02,-3.526543148128024469e-02
2.016878359614060826e-02,-4.436449810167421987e-02,2.138960330280435806e-02
4.138455134450507583e-02,-3.636392296512332145e-02,-1.931995645454739896e-02
2.727847837233469876e-03,-1.876825879627643315e-02,-2.411245089904634140e-02
1.967881277479415630e-02,-3.296060246275100969e-02,2.258259964629604627e-02
4.243100197731478757e-02,-2.613008260611747458e-02,-3.543634887917256060e-02
2.798137267578205273e-02,-3.201797756389435090e-02,-5.008948873073061636e-02
-1.836166558314088204e-02,-4.497000774241625976e-02,-7.589607127934515363e-02
-7.379481333930374906e-03,-9.529295520161733257e-03,8.541742224889319057e-02
7.016204440554324462e-02,3.676627666725030413e-02,-2.301585774181402755e-02
2.798483227413655836e-02,3.765561284899686476e-03,-7.998742976890585443e-02
1.424139509305901753e-03,6.375489979835154662e-03,5.602694248428661400e-02
-8.052026975461464009e-02,5.834145587992977527e-02,2.097247348283009377e-02
1.215415239823089757e-02,5.256843403065305370e-02,-2.359933988243413661e-02
6.805202442524085904e-02,1.602083871767923801e-02,-3.423913385113350194e-02
5.436522202604724546e-02,-3.640175985160377936e-02,1.671825131739904796e-02
6.133523895612925936e-02,-1.441183443135915856e-02,-6.778760614030980569e-03
-9.067738007205996750e-03,-4.361443749538774367e-02,-3.407470736927197680e-02
9.351647395067200219e-02,3.146908684260816408e-02,1.928499199845139234e-02
3.794886682765195168e-02,5.135321348972357071e-03,5.210256100604759161e-02
5.819181045352419396e-03,1.719815569819944240e-02,2.227588608893987798e-02
7.902126051089006231e-02,-1.744263700929964481e-02,-4.864624603451455503e-02
6.084573614959125527e-03,-6.865126415464027632e-02,1.203231737509818239e-01
3.690413392717000612e-02,-6.401649641049057815e-02,1.319164698116835101e-02
-4.972054465670376622e-02,1.199741833636581573e-01,-1.150255302001977446e-02
1.793319828952380859e-02,6.973272527800187214e-03,-1.109557227260468855e-02
5.321214870278370701e-02,-8.069413674600674213e-02,-9.180150945017570910e-03
4.815307228152659880e-02,-3.042672574565247548e-02,-3.354797097622758822e-02
5.089212997886732870e-02,-1.927070030009308058e-02,-8.916478193965963334e-03
1.755583996336101266e-02,-3.885983419793340166e-02,3.968739689979790264e-02
2.599432117078571275e-02,-4.609235758621111831e-03,-3.185956292523661748e-02
3.763858115681834472e-03,3.942590760335766553e-02,-8.139846908679947146e-02
-3.078271537634339958e-02,2.198866508756949778e-02,-2.058892745689484133e-02
7.928436490674397458e-03,5.817171320878309487e-02,1.156327714829600423e-02
-2.791121451561119973e-02,6.869839705430663690e-02,5.236749122059798645e-02
2.592158538834349324e-02,-4.827941724477500390e-02,2.441455512729328800e-02
5.207937663055163535e-02,-4.067965529508960065e-02,5.005238021462457207e-03
8.589299489439086721e-02,-9.609896336360977676e-02,3.696804463358831921e-02
4.613411925283720377e-02,-4.917863782605905176e-02,1.797142116736039454e-04
-3.706992084032806334e-02,5.024643239952353985e-02,-5.197510425457466804e-02
-7.440243470430674480e-03,1.006640587053853758e-01,6.898055674501429868e-02
-3.436117500653262935e-02,-8.452928309393398232e-03,7.219029620316919083e-02
2.127967826146173747e-02,8.990272079947697614e-02,-3.010128252764509085e-02
2.767327370758404861e-02,8.674632524303088621e-02,-1.455582689020154270e-03
-7.113629678627727583e-03,-1.091335304460535477e-03,4.352635704306394987e-02
7.343833031126447038e-04,1.112735667135302323e-02,5.450587065770268191e-02
-6.395442495826436646e-02,1.395341743093240182e-02,-8.341083701777237888e-03
-1.797384924141571388e-02,-3.933356799777542462e-02,-5.637060536568419544e-02
6.005169246294296027e-03,4.782112553231027650e-03,-4.323329662549098285e-02
-8.215582807518352626e-02,-4.266992036567830715e-02,3.726714069576709393e-02
-4.253751423509609386e-03,-4.449008087646234844e-02,-3.096814253078404230e-02
-1.632013985075652165e-02,-3.320157849588456240e-03,7.027855011763604887e-02
9.925732301722138204e-03,7.293923041393012181e-03,-1.467860363742192614e-02
-4.200839315201206070e-02,1.488177573638624525e-02,2.501675072325753799e-02
-2.074284629442857235e-03,-8.484427901564506325e-03,4.194325268706289994e-02
3.176404085905314839e-02,6.269752827356156639e-03,-1.738144098587037986e-02
5.722853016276610583e-02,5.549671362212942743e-02,3.603975598874202546e-02
-3.353336433019230012e-02,6.908830483381140156e-03,-6.363975226922846673e-02
-2.093717307836980707e-02,7.700875522729375665e-03,-2.680614923668662997e-02
-1.862603658034598861e-02,-1.987862523156420577e-02,-6.567597010130438173e-02
-4.189888319813146571e-03,-2.406621971567734098e-03,7.457883149397154243e-02
5.770688091344625126e-02,4.860651819452666694e-02,3.423023043492982170e-02
1.060374057836413475e-01,-3.394916916658716199e-02,-1.320524019187203392e-02
1.061536497148126215e-02,-1.625771022929320062e-02,-5.852249889123248283e-02
1.811618524433914953e-02,2.082464094318135783e-02,2.724549472636385999e-02
-7.700480893359494539e-02,1.193484335413287981e-02,3.665272801087496313e-02
1.437208476856930740e-02,-2.579775666509004708e-02,2.197074310994114044e-02
-1.309998719519906221e-02,-3.503002635762059169e-02,1.491127768051341007e-02
7.124074645915294546e-02,1.726910062481044200e-02,-3.995359581745463323e-02
5.470179283008570065e-02,-2.304679183051878966e-02,1.225728339157796873e-02
3.604432523155487109e-03,4.543366969964131655e-03,2.706682841749123714e-02
3.402511226845929271e-02,-3.818789218230884269e-02,-5.724989448226651401e-02
5.749180792185340505e-02,-7.435170980423671562e-03,-1.139104082338838683e-02
-5.165023338986277773e-02,2.578354362027505259e-02,2.204489667591077312e-02
-1.060457536999866689e-02,-7.566097382736673010e-03,2.473517554727161505e-03
2.935619392405016889e-04,3.038505330031609705e-02,-3.673823670666767453e-03
8.702498058326277319e-02,-4.940294328104236771e-02,4.126036157360424977e-02
-9.428642879841991897e-03,5.685667250568015446e-02,-2.351209918103895624e-02
4.051693845926643278e-02,-3.674041086553845453e-02,-8.871588161583775570e-03
5.296864275122688953e-02,4.683485165564979513e-02,-1.477239052050310572e-02
-1.221636261660396724e-02,1.657104171869065723e-02,2.553684950592094785e-02
3.274885795069374436e-03,-3.150251049307404433e-02,-1.792146191808912520e-02
3.053933985701533411e-03,-1.517712296197486384e-02,5.171341967771659123e-03
-6.335000504703666713e-02,-1.878681256701315513e-02,-6.798568156170507748e-02
-1.250678389043917704e-01,-2.451359894887394919e-02,4.977798453491876635e-02
-2.517441709012379226e-03,-5.474549662725728544e-02,2.605073049506310620e-02
1.982190278529523050e-02,2.496481907054827476e-02,-6.536182687635017086e-02
5.912295059709298667e-02,-1.960522653414716390e-02,-5.452426434447257830e-02
-8.818506905246999150e-03,-1.171144145708736747e-02,-1.953255116975953845e-02
1.708030529369278239e-02,-1.874500172778928442e-02,-2.988693628526156720e-02
2.789184751766703163e-02,6.799953740217419551e-03,4.595418260346874340e-02
-3.988666384083189992e-02,-2.312461576746818390e-02,1.718579118904069516e-02
5.048004886291322657e-02,3.003636254454095794e-02,-1.597205135940454879e-02
-2.675749821608292955e-03,-5.820257768028239652e-03,6.946141695138628724e-02
3.043954065944247736e-02,9.995609081271441751e-03,1.731744691067859873e-02
-1.924969306779540992e-02,6.997808262270964474e-02,2.617070610316069024e-02
1.158096690587777366e-02,6.056723350515220289e-02,1.368628175105361493e-02
1.166199668960463988e-02,3.843555805554768612e-02,5.640493975203645510e-02
4.629380885079140834e-02,5.956574480730081333e-02,-1.129489063634726148e-01
1.459317007310983148e-02,-9.845893497381384002e-03,8.176694008949533798e-02
-4.252814817710356271e-02,4.199421383034561417e-02,-6.859931158514120941e-02
8.206353372178216976e-02,-3.218320926425174283e-02,4.462894823279754501e-03
5.976115074405789762e-02,-4.851121450490944453e-02,4.474929982445928489e-02
-8.673589404004901360e-03,-1.945417126243243269e-02,1.724539655332394533e-02
-3.965651959154768702e-02,8.370079554561403457e-02,7.821452959047644690e-03
-6.773120935390047892e-02,-1.699857330682109230e-02,-2.842277149394386443e-02
6.163263239429961522e-03,-7.830723785917624580e-02,2.503914460125365379e-02
-2.277470886521058141e-02,2.597630988540996534e-03,2.985392716316326647e-02
1.536184271422016100e-02,2.370856742915919413e-02,5.018732901703438359e-02
5.526098522934103086e-02,-3.802889797402087685e-02,-3.932504665281146700e-02
4.752236952975744111e-02,9.632045523850498239e-03,8.294157088470660577e-02
2.014986989235661649e-02,-2.427396833555471589e-02,-7.463993679155643546e-02
2.640886053371808984e-02,-2.012156287510942845e-02,-2.627084811726372246e-02
9.692739643888232358e-04,-1.948476391720752390e-02,-4.765793059740209420e-02
8.750626528907153034e-02,-3.603443523038021151e-02,3.381938213939451182e-02
-9.352576856226910151e-03,-4.504881777817973387e-02,-2.906055334327869999e-02
-7.851680132266304450e-04,8.243515408450037552e-02,3.737943277870525716e-02
-2.687953524355825990e-03,2.959134532865136114e-02,2.882645635711686069e-02
-4.638345017724516961e-02,5.289932788308911865e-02,2.517286983641056283e-02
-8.118790912446567382e-04,3.757839543853815772e-02,1.095943303950480154e-02
-1.550936595989066413e-02,2.724524524960767261e-02,-7.580027276945578048e-03
1.843654246288945267e-02,-9.641142548211526636e-03,1.368277386978267130e-03
-6.402610707647406370e-03,2.120622711058401874e-02,5.900208843163864264e-02
2.248225219448370463e-02,5.048397834261189598e-02,-4.486505174623738046e-02
-1.532235139286410898e-02,-4.698758655927293831e-02,-4.482707668421522830e-03
5.931641522120317117e-02,-8.119442872618136409e-02,5.629281965275594046e-02
3.513948554450778416e-02,-8.167285121401492154e-02,2.964944200857973916e-02
5.759529433793689202e-02,5.588802384704885662e-02,-5.164097237909328827e-03
1.721581804246256203e-02,2.506937580028938475e-02,-1.548887351327614924e-02
-8.536515388072131449e-02,-3.114397784951524265e-02,3.594730049699966512e-02
-6.843541025766788910e-02,-9.645007879203970624e-03,5.670438809005196902e-03
4.829238209594814701e-02,-4.481670678649629647e-02,4.642138125369064602e-04
-1.627262024457771031e-02,-4.002929981038519380e-02,-5.198547731087237167e-02
-3.796857545156408567e-03,4.171843425615055084e-02,-2.266400990500698834e-03
2.620257611297933942e-02,-9.676445971255951198e-03,4.938799408294714671e-02
1.330516074917072709e-02,3.919732626895968720e-03,2.394415108940782869e-02
1.968454943025332166e-02,1.874030554150523178e-02,5.128416851691925543e-02
2.181280441156032562e-02,4.052270075642621511e-02,-3.580465828474198309e-02
-1.945920241309652063e-02,5.193185588258685675e-02,-4.385622689321065637e-02
1.966509844341005411e-02,4.583373281128721999e-02,-8.834060432236510996e-02
-2.713034909438598666e-02,-3.352927918964980492e-02,-2.085914513391773015e-02
-1.563232753851284337e-02,-2.235312640700696726e-02,-3.260436405037577673e-02
-1.432472478954927540e-02,-6.696168333448832000e-02,-5.197354225124204558e-02
-3.293520811211748684e-03,3.986056257896007649e-02,2.567253914941711179e-03
3.835138253727419372e-02,1.931547342925250127e-02,2.235871013940254545e-02
-2.057934612045074323e-04,-1.455093854109142104e-03,6.396162408128827333e-04
3.209801463407055758e-03,3.588491856296237553e-03,-6.808151008609909793e-02
4.292690556124532930e-02,6.910127470873987654e-02,-3.732192983726890373e-03
-3.893925481011854817e-02,-4.151464854688401325e-03,7.220162424945007762e-02
-2.931273884517930986e-02,-9.441536940972659539e-03,1.779283814093447769e-02
-2.711669366349631419e-02,-1.187044343753188361e-02,-5.083669246806161307e-03
5.212378609822514684e-03,-5.274619228686647926e-02,1.949084553951336641e-03
2.907918878805164711e-02,4.684827120678555779e-02,2.880737866692996071e-02
6.069189083362822035e-02,8.574174138202442924e-03,-1.405150514933168060e-01
2.654324646318039979e-02,-6.078950987618046697e-02,-3.363223714530556158e-02
-4.493402206880364735e-02,-1.431073337353232049e-02,5.991247198243323385e-02
-4.552672324570909007e-02,4.004404500470921252e-02,-4.769476397098412063e-02
-2.747643633373461972e-02,6.777451811566186091e-02,6.191920542278221001e-02
-3.727917094625917555e-02,-4.919670952949117739e-04,6.461179182442858271e-02
7.846046300370343451e-02,3.201910536907803112e-02,4.367893840770733366e-02
-9.455558181970824885e-03,4.849517081418225350e-02,6.425677859518530433e-02
-9.582034936702737635e-03,-3.253237803186240229e-02,7.806404177514311704e-02
-8.365401927619346700e-02,-1.289835616176919150e-02,-1.419611828773617319e-03
-6.254485442639484694e-02,-4.864708589446489762e-02,7.143504813242526619e-02
-2.153576083162705990e-02,-2.625692829528897612e-02,-1.051332553760923536e-02
-2.191172299493664502e-02,-1.343191526421543165e-02,-6.191599718461587853e-02
4.447236640578982464e-02,8.421481742247835869e-03,-7.151754987299205335e-02
-1.634707925546441745e-02,4.297884312926347067e-02,-4.075770581858895528e-03
1.084759271474347413e-02,-5.456320944506021231e-02,4.641477969638525825e-02
8.291243677149926633e-03,-3.575091808666808896e-02,-2.212662136116116604e-02
1.270735503213517477e-02,1.338788023885489203e-02,-1.608706999161865553e-03
6.527287770992235005e-02,-2.799887988124710042e-02,-6.889100451737016628e-02
2.036359767990458466e-02,2.585753378983441948e-03,-6.983778986848944957e-03
-2.988185049805126576e-03,7.208737917235139014e-02,-1.075570610133769894e-01
-3.866761091990521954e-02,1.793348607612060223e-03,-8.081111971569056307e-02
-5.747308265920264558e-03,3.277296034032797269e-03,5.448306844780101757e-03
5.000949797761265747e-02,-1.629803598679869028e-02,-2.715763680444163025e-02
5.773131097225997488e-02,1.719597351833765733e-02,3.976121507667503691e-02
2.859189209339036211e-02,8.981443127818325434e-02,-1.472875222813991442e-02
-4.849716119774391543e-02,4.498450931355280763e-02,-8.973781538792207800e-04
1.874366429574237866e-02,-2.218446787454378399e-02,-4.926920319623848826e-02
4.722205366437453450e-02,-6.253297517140342376e-02,-3.964072445538557345e-03
-2.459562794208459968e-02,2.366147775531214636e-02,1.712653892916768741e-02
4.260200065597977842e-02,-6.786270672632833956e-02,4.768396353402793580e-02
1.280557143208159269e-02,-2.974097432136357799e-02,1.895534405159382887e-02
-3.575336613624583576e-02,5.899525890679423873e-02,-7.298169017039077278e-02
-1.741292256294068794e-02,-2.310780936892220874e-02,5.566546247447352186e-02
-3.151892202681132182e-02,5.872187979500866073e-02,-2.904606990030507777e-02
9.892103143469263560e-02,4.051331404417703175e-02,5.214488663840638472e-03
3.625087497079537008e-02,2.706893631018255156e-02,-7.753393829923342639e-03
-1.573438917233299650e-02,3.633164810803078681e-02,-2.055428720210744631e-02
3.152543307074023166e-02,3.237600078253247398e-03,5.796371818855727831e-02
-6.933745347119329994e-02,-7.535167224436411029e-03,-1.162218970987562681e-02
7.518430441871935821e-02,-1.929861790208468181e-02,-4.439826737374226451e-02
-4.530968024213040228e-03,-2.608862365812176370e-02,4.283067839013327688e-02
5.693613250114419773e-03,-7.533665612203394903e-03,-2.546873233671334558e-02
3.919062539475544164e-03,2.587592406934866029e-02,4.391507862727549172e-02
4.914300320387775950e-02,2.442777184997638878e-02,-1.734513647610728265e-02
6.324744387161658488e-02,-4.097374443797672378e-02,-4.199206649381248546e-02
-3.708451723803124489e-02,-4.509488829282109860e-03,1.813333619077476394e-02
-2.635244690359947808e-02,5.026688241986026345e-02,4.545362103403515625e-03
3.622698192301352510e-02,3.305506534239215088e-02,-2.829967851485225977e-02
4.530054880637492121e-02,3.758914873210058433e-02,1.063422524342243769e-01
3.264290831455358283e-02,2.338698539328297119e-02,-1.938960140541392749e-02
5.892978173219416693e-02,-8.155018743167059825e-02,3.952001030917629693e-02
6.235221053430980986e-02,-7.671715530120956639e-03,3.105784970886627666e-02
4.337893137705379869e-03,-3.135971871723062382e-02,4.398322276210814286e-02
-5.873300933151837794e-02,3.693800375435873917e-02,1.135314915193529062e-02
4.509672106854772239e-02,3.125250711539322851e-02,2.748919873448122872e-02
5.088574613997981803e-04,-5.069563797841281083e-02,2.184293148612375529e-02
-1.289119497115004918e-02,4.462935850103847898e-03,1.623335140405100102e-02
-1.665231654445544981e-02,3.039368179484794319e-02,-3.449743759375603971e-03
5.957163076214809505e-02,5.770629444342770253e-03,5.906091987196652321e-02
-3.292218320797960646e-02,-6.878912091741674895e-02,3.629990411103223291e-02
3.631222096565053098e-02,4.426426621063282024e-02,1.734332069279865066e-02
-2.020458081752634152e-02,2.558719414590540642e-02,5.749091806101674224e-02
-7.833776001569670369e-03,-6.439449522063005193e-02,4.712225489580140758e-02
4.761615716359724544e-04,4.133944189502519045e-02,-3.162208104613598025e-02
4.826376834097856339e-02,-8.648323626770590411e-02,6.713135417051833975e-02
2.729668904751729117e-02,2.122932054610468522e-02,-4.361946164454866964e-02
-1.016834733954633668e-02,-4.698739475338947064e-02,3.475864874639165991e-02
-7.140972200164742711e-02,-1.778598753786432562e-02,-4.730165230331360993e-02
-4.752795306755060894e-04,-4.759816451639803381e-02,-6.126262566155579042e-02
3.560530349854421073e-02,3.913480878215590958e-02,3.443421636858211982e-02
-5.774406775132118891e-02,-3.464993687505327213e-02,8.016354630653145519e-02
2.079203210445491889e-02,2.217300685852233166e-02,-3.212300842060471229e-02
-4.834695326260790571e-02,9.967714962015097879e-02,-2.164045201625342148e-03
-1.239914603858879860e-02,-4.605942404983399269e-02,-4.060881754499114787e-03
1.267538250770073281e-02,5.423785485952881125e-02,2.276820201721998713e-02
4.255288835317126706e-02,-8.284938625727489292e-03,4.729534541867349423e-02
-2.277976459253816185e-02,-3.274497550891850711e-02,2.459712601100294896e-02
1.262491007001513219e-02,4.805787915446844277e-02,2.744059659006227794e-02
1.002423370880344347e-02,-3.316136770457517313e-02,-5.741929544278761427e-02
4.316820909229496239e-02,-6.656020123937902815e-03,-1.327539479385404786e-02
4.078069601772017078e-02,-3.353710262161892913e-02,2.281452747586874569e-03
-2.994486003968947416e-02,4.654701917952853985e-02,8.748729067773698340e-03
4.519839889845107123e-02,6.018984904584901569e-02,-3.996696212062762071e-02
-2.335099121987925519e-02,3.047718501251434065e-02,-3.822908367391054940e-02
3.075655977193194821e-02,3.633137809739939855e-02,3.836808444432123627e-02
-4.698722878984879642e-02,-4.303126254356164082e-02,-1.811950273221778901e-02
1.119676136211313240e-02,4.653137461053796775e-02,9.323807608752418194e-03
4.651050697721308830e-02,-6.569103202506976213e-02,1.505366967958918483e-03
7.649855666222085682e-02,4.007251935568386519e-02,-1.263884993935327494e-01
5.451205650288947456e-03,-5.191577007426502466e-02,4.935597075612362106e-02
3.115011391368941590e-02,-3.443287355833776070e-02,1.402808696107175380e-02
-6.792376621341560117e-02,-4.540860013703706261e-02,2.713619844693422600e-02
-2.764756656072398650e-02,-5.975894772341023425e-02,-2.398146456906421684e-02
1.592579282041846345e-02,-2.650840540496540113e-03,-2.660677156029211607e-02
-1.718983351144206390e-02,1.059786326125428634e-02,3.215538536605728331e-02
-1.032766530721533488e-01,3.421873525311441844e-02,-4.325973545749196153e-02
3.879027953932649014e-02,4.594346592126925116e-02,6.098396765370177330e-02
8.402644213170383167e-03,2.908273814942977965e-03,-1.924249142202174440e-02
4.235755591948783816e-02,-3.182896435961135584e-02,6.140157379825461267e-03
5.578123927338936479e-03,-2.961520444815201464e-02,2.912331375452938825e-02
2.517461787452331123e-02,-6.625204128142128668e-02,-5.459449250397693104e-02
2.333688347516127415e-02,-5.975548989643025138e-02,8.437898599793351717e-02
6.497361320015331183e-03,-2.646036595689890344e-02,2.518058832083570897e-02
-1.518834084935314320e-02,-1.024608413155039394e-01,5.942947336695420316e-03
1.221322292834264682e-02,5.161546029574081568e-02,1.704200441983600919e-02
-1.278590927445069809e-02,-5.577586829181467587e-02,-2.871426577862989243e-02
5.499962156619610243e-02,1.676843802765693933e-02,-2.840885281956936556e-02
-1.644945749475349925e-02,5.124307377910538620e-03,4.135374683080715597e-02
-7.645073394701451530e-02,4.496354162097033341e-02,-1.166326174034961263e-02
3.254384029649518006e-02,-6.258474357175564107e-02,-1.132486777192054372e-02
8.702106726550558682e-03,1.930484537362518738e-03,-2.821168819388805270e-03
-3.395704604543335614e-02,-2.341126574656095510e-03,-1.346644607290275499e-02
4.580920566376538161e-02,1.053260603275211343e-03,9.258190512275031592e-02
4.336227946307268794e-02,-3.553773181536680481e-02,-2.810984622597053478e-02
-4.745225033206163651e-02,-2.908573467358700759e-02,-2.626140470868106556e-03
2.587291777245709877e-03,-5.580926043248798929e-02,1.221875063248323984e-02
-6.038529034715001652e-03,4.009954247964664376e-02,-1.649052180835089421e-02
-7.134531415941640364e-02,3.014245075406290011e-02,-3.665875561751771178e-02
6.689151975297642772e-02,1.651597127791955624e-02,6.600618257487844698e-02
2.754148062615811160e-02,-1.825525386498411812e-02,6.324815049226971408e-02
-2.965424286645174448e-02,2.380479771136963935e-02,-1.459925392572289371e-02
3.879110065157964637e-02,9.818637857304409605e-03,-9.569618574750230269e-03
-8.232371125917410659e-03,-5.048471461119098322e-03,-2.153479345186276595e-02
8.046659159922382731e-02,-3.978840144991993219e-03,-4.287906541323333043e-02
-2.968764438700650585e-02,4.048968067292263440e-02,3.080928033437915423e-02
3.170400108673731426e-02,-9.673261428212374252e-03,-2.963275266375836603e-02
2.869952913757001928e-02,2.018341235227797195e-02,-2.950818934862054627e-02
-5.548350860773235138e-02,-6.282923925975243684e-03,-1.144330745160005748e-02
-5.364092600042476289e-02,1.714295449517329664e-02,2.042204828390062343e-02
8.197535284704378714e-03,3.688671918018161799e-02,-7.193851342259887337e-03
5.092512384642673001e-02,-2.194230492737473878e-02,-3.757229801179457797e-04
4.070564415176348289e-02,-2.532556094810432465e-02,2.091127374309753595e-02
-5.044301495778133471e-02,1.341703687498114854e-02,-3.755539809377334698e-02
4.073710932083377673e-02,-3.231944541825710650e-03,5.135141297992753401e-02
-1.383067938420425979e-03,7.604760203077989833e-02,1.454987968859003042e-02
4.310300158686408180e-03,3.242815307736240243e-02,-2.341884232245208114e-02
2.782123782096621381e-02,3.957903520244920870e-02,3.032948401799667043e-02
8.460990576663973348e-03,1.578376315570493085e-02,-3.749003059117708703e-02
2.857902458141315521e-02,-5.966171881535329430e-02,9.258517269798961780e-03
-4.600172937984391142e-02,8.141859731639317088e-02,-9.023819607519897867e-03
-1.897388160744113705e-02,6.962837106275236373e-03,-5.298917287734667553e-02
-7.316776610805275811e-03,-4.826029779971307936e-03,-4.358113783943348002e-02
6.476233448198820408e-02,-2.198368117435403266e-02,-9.978031662250563816e-02
-1.981064148760479024e-02,-1.903569136966561104e-02,2.332006503721462468e-02
1.160474698487747730e-02,4.317027576891642460e-02,2.701873459147630108e-02
7.587065551313869338e-02,1.854038868559669886e-02,3.797665300430525664e-02
4.772053132856853182e-03,7.935524711171668133e-02,-3.259311019384770330e-02
7.010932781064704855e-02,-1.030713633030557255e-02,1.016624228931684443e-01
-2.497443819042733867e-02,-3.697161631305686570e-03,2.081958728519523599e-02
-7.270438419162183856e-03,-4.257102071920572384e-02,-1.228327972072133095e-02
-1.303122913711261127e-02,-4.234145909937530629e-03,-3.696073457671451845e-02
-5.001412828929283072e-03,-8.905928987208858172e-02,1.690906442023381792e-02
-4.486964297431325632e-02,-2.366733081618727780e-02,1.774617242598259051e-02
5.474535337081142677e-02,2.939279374071362971e-02,-1.117081640206019598e-02
-1.135093672564517833e-02,-5.949937073855772821e-03,5.637292299403397905e-02
-4.906636481130351168e-02,-3.010212401803221208e-02,-3.728934945532977330e-02
8.357447872489253207e-03,5.583272808652087887e-02,1.175153030235499309e-02
3.606880155153243533e-02,-2.367507356106372807e-02,4.399495309926315656e-02
-1.054921310736199082e-02,-3.856731953178113570e-02,1.888957836244732971e-02
-2.452517119170888327e-02,3.447032370625526221e-05,5.513881312767743986e-03
-1.591869549901244948e-02,1.170491702545894408e-01,-4.337376871038225480e-03
-5.173010926752254907e-02,1.436568474698522203e-02,-1.003391108780294673e-02
-8.005475452928717539e-02,-2.990364418341498465e-02,-2.839881159822632908e-02
5.999111915424324565e-02,9.722188966286543499e-02,1.077180352214615264e-02
4.925047385432872876e-02,-7.161444126779527297e-03,6.041345629434335951e-02
8.969156985311847741e-02,7.025383375069052527e-02,2.518572769192574390e-02
3.689654278066543253e-02,-2.382747196474268095e-02,-5.723440449822466379e-03
3.434272698248157923e-02,-1.680159057806678707e-02,-3.223189655246266189e-02
-4.550706002607467909e-02,8.230421299301785259e-05,3.810444856304152916e-02
4.620390211559671952e-03,-9.194001765894137257e-02,1.160260580393154134e-02
-7.867234252625237428e-03,8.610767344897031147e-03,-1.203129314663305659e-02
2.437322987426051440e-02,-2.507279806075063747e-02,1.386308899206105741e-02
-4.434067824036158623e-02,-1.754974593394299787e-02,-3.277845087800897866e-02
-5.536071659489816971e-03,2.563005619880396116e-02,1.545411934554980632e-02
4.544689965958579464e-02,-7.407434918616054298e-02,3.995330905877855082e-02
-5.878609081161068756e-02,-2.859221809311678075e-02,-1.364439813740450820e-02
-2.751137664113476392e-02,-8.383379278083301009e-03,-4.605122731193678209e-02
6.284090108746642539e-04,3.262270567298209550e-02,8.336788105231311002e-03
1.064165001063496069e-02,5.352469088409498796e-03,2.985658716258924802e-02
-3.073548679466804254e-02,5.594267803039749964e-02,3.423898781243790018e-02
3.358754964319781572e-02,2.973016159940623793e-02,-7.741220283722261876e-03
8.928919734662043445e-03,6.513688895884565955e-02,2.892630826031848679e-02
-7.573724746258944651e-02,4.683523181712183348e-02,-2.635265826517387000e-02
7.678812240035481906e-02,-3.411389157187789262e-02,-1.889779702097897033e-03
6.601066097979345348e-02,-3.367976862983968617e-02,-1.981375431258701816e-02
6.984573062534610299e-02,4.176510184446229068e-02,-7.660312045204482889e-02
-5.552432277666964448e-03,1.564808824560279428e-03,-1.158825590062016742e-02
1.361417653080659040e-01,-5.496116452710082811e-02,3.031792189418076183e-02
-5.707592686805606358e-02,-1.369696183105296484e-02,3.423726058924020377e-02
1.964438685208611327e-02,-1.010293474288177264e-02,3.029871719596668664e-02
1.950984399996385024e-02,-3.497675406879251908e-02,2.934741128353302378e-02
2.113749580387675950e-02,2.334688431507692466e-02,-3.086065755504642863e-02
-2.188449563855627070e-02,-3.373815724551419010e-02,-2.104634232141119540e-02
-5.154040455147482908e-02,-7.973388852058881093e-02,-1.238254675498272860e-02
-5.150362942271089622e-03,5.121254647269840587e-02,6.199092281951986555e-02
-5.507462707561064374e-02,-7.545896320661447769e-03,6.272511110598387452e-02
4.782961131037087935e-03,-3.464008162358724746e-02,-4.894109925787766546e-03
-9.390428890668298112e-02,-3.310247888157735741e-02,-5.163495204371036651e-02
-1.698677080322199759e-02,3.853999971761287724e-02,-8.238737594194722735e-02
-2.772560540110267924e-02,3.818278838664572461e-02,-5.828161677581943784e-03
2.707504594067831720e-03,-8.998274555010224440e-02,9.977327223928801961e-03
4.927423524349298922e-02,-5.654630926940919233e-02,-8.424554877833576039e-02
-3.061644411389123285e-02,1.310282707985625447e-02,-5.185550291853669586e-02
1.910597864967042078e-02,-2.598801289462653388e-02,3.996967382429545551e-02
8.503518921265131730e-03,1.039775368178982862e-02,-8.824346687407844114e-02
4.254320449390916470e-02,5.842445629285471318e-04,-5.942866056941829150e-02
2.442021702612501288e-02,2.577188690969019202e-02,1.122350113297540877e-02
-2.718447800210129633e-02,7.828127969816063222e-03,1.627139795561617294e-02
1.896128914003544080e-02,5.321478472546833233e-02,-1.640269959802179156e-02
4.164424565602902611e-02,5.077318779232308649e-02,1.853851305188625241e-04
-9.234181279903823369e-03,-1.300419037646729017e-02,2.235501989998061462e-02
5.645298289135342734e-02,1.392907061392076144e-02,1.028358682581835028e-02
1.046919088993473069e-03,2.501149212921648796e-02,-9.607738724148613685e-03
-1.624372080189151121e-02,-6.574978553164444184e-02,6.127974828485122094e-03
1.469413130308913108e-02,9.186582905692497122e-03,4.372013388408640261e-02
3.354063299852325097e-02,-2.375473525597610394e-02,-3.587709023490313117e-03
1.917079924727337070e-02,6.146696295340909472e-02,-5.620062736625118516e-02
-1.887616308567614115e-02,9.271054841260483945e-03,-3.729209829539981147e-02
7.843264240178867211e-03,2.452831044060247920e-02,-4.728522647523845240e-02
2.519540262051343099e-03,7.554659514687724065e-02,-2.149467897957979892e-02
8.379867734617736652e-02,-2.754418340507395081e-03,1.046480804939118117e-02
4.030420670612572254e-02,-4.218497179369278677e-02,1.461621645682180740e-02
2.717175337513585281e-03,-2.909319790537519962e-02,9.310189973617268803e-04
-4.943483575795841467e-02,-4.742930186379135105e-02,3.172462725665494299e-03
-5.832732762529418968e-02,2.440038637011783529e-02,-1.732338104046515087e-02
3.198840452861759220e-02,-7.000291602945139628e-03,3.448683158991632056e-03
3.610583161702620586e-02,-2.205183969009892120e-04,-1.325380498488802454e-02
-1.122411246451913459e-02,-2.383915361785437885e-03,1.080612263193367756e-01
-9.162361188712962734e-03,3.810575305746648905e-02,-4.828354992506754713e-03
2.848153635821294022e-02,-4.581320720919175755e-03,-1.425624362529032824e-02
1.101366812292978344e-02,-1.747946157556117680e-02,-8.025540770908395904e-02
-1.468947060790855297e-02,3.796363270946533780e-02,5.196622034186606370e-03
-3.140397319424587802e-02,-3.720693662071757838e-03,7.075847932599335643e-02
3.024988991110033262e-02,-3.009646687256038386e-02,2.640952323439145835e-02
4.382425155362881103e-02,5.249814277674196786e-04,2.715459279968711684e-02
-3.787619301322728369e-03,-1.975513267885307608e-02,-4.610541699693839618e-02
-3.809058942871295511e-02,6.390017388059876513e-02,1.783733494543703751e-02
-7.138857512206134293e-02,-2.424994385987027518e-02,-4.676337517342060712e-03
-2.241044075749754408e-02,1.962810789816685567e-02,2.217087463606465941e-02
5.615411317411906494e-02,6.769132691934220958e-02,1.268575207406430656e-02
-3.777924894654783455e-02,4.522969662131821195e-02,-5.136508501453661280e-02
8.378559454922161406e-03,-2.570318798171510044e-02,6.437931929739391934e-02
2.177986687857470446e-03,4.073552391654429623e-03,5.558803379760691304e-02
4.590884520436021299e-02,1.956465721851516348e-02,-4.146753211469012684e-02
1.486403055487499217e-03,-2.007078857360866577e-03,2.713736029489490637e-02
2.937896994983767857e-02,5.304002479918133728e-02,-7.488217180768461101e-02
9.980963878929783369e-04,4.596724060323222755e-02,2.991478356866969241e-03
1.699309251938684040e-02,-3.808549160447732406e-03,4.451574302825241081e-02
5.491489300930336298e-02,6.869003656082173389e-05,-1.023603490581072722e-01
1.636209865903712549e-02,-6.340955903685571368e-03,3.575469851545438199e-02
1.242252470983010344e-02,-5.089148690428355742e-02,-5.099581143534515776e-02
2.784494565029762073e-02,-5.039054652988995964e-02,-2.184051741744456182e-02
5.493281260281182576e-02,8.667432771142632997e-02,4.485043433009255204e-02
1.106009510905229393e-02,-2.519694443525958422e-02,9.220845674637365152e-02
3.620695537587440005e-02,-2.160059241858167112e-02,6.712631468347982945e-03
-4.285861761348738058e-02,-1.010182202756171599e-01,-4.814331995181522078e-02
-3.165859846389960930e-02,-2.408125089329976251e-02,-9.547684896964180740e-03
1.741067052739739621e-02,1.632127689653683350e-02,-5.634104669156698303e-02
7.344304822218543534e-03,-1.535122366982490799e-02,1.007571736869977697e-02
2.689627467962899671e-02,2.261451060589102571e-02,-8.468838230913709395e-03
-4.276488835924210918e-02,-8.549037120521567334e-02,-6.643846290303574709e-02
5.134613312891122411e-02,-3.782839086734331169e-02,2.804272514199407460e-03
2.436772694371861989e-02,4.325241030974552592e-02,-5.256466156507661608e-02
1.418634224054715620e-02,-2.738377145272447369e-02,1.910703919609422693e-02
2.551502327618196658e-03,-5.180880776550012001e-02,-2.528991465220802731e-02
-2.833020661949410893e-02,1.578445341393175036e-02,1.703313785292613625e-02
2.751976933965576480e-02,-1.935615584173935866e-02,2.207816813387909955e-04
-3.192199221128382003e-02,-4.237892363709452360e-03,5.553915602413274366e-02
-7.754079197553158387e-02,7.894429437433618524e-03,-9.589303703515482391e-03
1.045807409520860265e-01,-1.583569385104334655e-03,-4.041236132486685645e-02
-3.673803425626578911e-02,-2.470850090744965491e-02,-1.192534645287491625e-02
-2.348424129075600900e-02,3.951277902218883198e-02,6.881411502276357783e-02
-1.020182339247114982e-02,-8.367746901406072912e-02,4.821810948065767544e-02
5.095945855741271929e-02,8.954743370701536559e-03,-1.042076158427521076e-01
6.766917208172487652e-02,1.868331460175084308e-02,-2.310572296586776639e-02
-6.093709751317055723e-02,6.482718365121077631e-02,-5.864678931661176237e-02
2.476640043906573607e-02,-1.525126191661623767e-03,1.927518855165527567e-02
-4.091269519753267664e-02,1.037691308398691441e-02,5.995008406741985166e-03
3.398969323553884588e-03,7.433382723447089224e-03,1.789086960839591373e-02
-4.110821064966475522e-03,2.830488313733648884e-02,-6.867704453735189174e-02
4.573701508767127888e-02,-5.663232697916057573e-02,9.510942458313730377e-03
2.703723988464755076e-02,9.723676140592326517e-03,7.356652242315184220e-02
6.593142692454148635e-02,-1.390397953300913023e-02,-5.765118635281204357e-02
9.081296965354918038e-02,8.748304531981231091e-02,-1.711720639533650598e-02
7.059717672218400464e-02,1.424692703941550335e-02,-1.175305943646334263e-02
-2.259958753014625066e-02,3.375276464867577996e-03,-1.381464809528055050e-03
-4.743683973067520238e-02,1.035373382780428869e-01,-8.660631849785459246e-03
6.291339105473942039e-02,-5.718277124552151314e-02,-6.440241901275264684e-03
1.106174729357308102e-02,-2.657059460590893707e-02,1.574867813236564482e-02
1.207228993733269404e-02,-8.148606022085551348e-02,5.005128448892822574e-02
-3.487415249898894593e-02,2.329471062061116721e-03,1.672941084983734644e-02
4.800862521910304048e-02,3.742177570480202664e-02,2.258642453432475883e-02
6.205954695202095528e-02,-1.734095263375944398e-02,3.598516301122678396e-02
4.161723862564323945e-02,2.445646301123709232e-02,-2.414424136111349012e-02
5.659708224956739447e-02,-7.143402799376842582e-02,-1.127916444603381703e-02
-4.949380878428492891e-02,-6.477266537735264229e-02,-4.318175962205608037e-02
-8.121630738285746248e-03,-3.019896465935515209e-02,2.067439729471594670e-02
-1.237274781699840634e-02,-3.956877470580141137e-02,-9.583749255501719522e-02
-4.147793713885325473e-02,2.674036158586979087e-02,9.780197122522270997e-03
2.069591024771226181e-02,9.901437922442338224e-02,6.794006495804512380e-02
-2.523535973409822553e-02,4.039656316911127004e-02,-2.049775752600520654e-02
3.827076793338753113e-02,1.402394727907828667e-02,4.221594663706270539e-02
6.712076844677646037e-02,-1.283577208712362132e-02,3.824955064264307786e-02
-2.436210736446401542e-02,-1.417121312437891884e-02,9.842091062610035940e-03
-1.046441781612496118e-02,2.051982678230152013e-02,-2.193616347886467172e-02
-4.259631774902575968e-02,1.932407972136595403e-02,1.893547472706900645e-02
-1.924373681320674240e-02,-4.977491952796470054e-02,-8.748177341327355305e-02
-9.545351582378526489e-02,-1.252936806184201668e-02,4.844166140098069007e-02
-1.109809620920158661e-02,2.454083011844987450e-02,-4.020944982528163597e-02
8.487062933354633243e-03,-1.888916435310359493e-02,9.607846167765020373e-03
5.031741077023892117e-02,3.717478574348562909e-02,-4.668026468985100874e-02
2.566015922222869561e-02,-1.001304489961411630e-02,-2.294761351228385635e-02
5.072962293925961652e-02,-8.826706406387566095e-03,-5.085010083304630085e-02
2.004096486768768004e-02,1.498679626722476156e-02,-2.963525448452887512e-03
-2.772729902302179666e-02,7.107341885845340317e-03,3.827207807904390441e-02
6.247776957860759484e-02,1.061895419524043829e-02,4.721722234576287980e-02
3.531345737010758989e-02,2.700494596780585524e-02,-4.551716500444546315e-02
3.210696987731603141e-02,2.232754976211652129e-02,-1.150564603904493700e-02
-1.458888920857195730e-02,-6.490055555705653845e-02,-3.889759358066890299e-02
1.781552308244184826e-02,3.139606236536190975e-02,-4.407223457135414635e-02
1.635622669199363662e-04,3.764035153386402488e-02,2.075369245903270488e-02
1.314313833834648663e-02,-2.220200871019082506e-02,-5.066729328392362286e-02
-7.357444566674276043e-02,-3.404085625840000753e-03,-4.174810355828685593e-02
-2.574785449739176377e-02,-2.426299373386325148e-02,-1.813297369182819557e-02
-1.286534964502781923e-02,-5.574935479265574756e-03,5.048414903062547338e-02
7.770084112783010380e-03,-4.772224567831173658e-02,-2.744285394757146196e-02
4.216321591666086221e-02,5.741891276759816289e-03,-2.649047170417891464e-02
7.085533982213941019e-03,4.074745993018756042e-03,2.538945101119516323e-02
9.131627305750063955e-03,2.430006884078596621e-02,8.284321566235606019e-03
4.641292837059798893e-02,7.702524191264845110e-02,-3.850366472882549990e-02
-1.528064979984694594e-02,3.635695919668279017e-03,5.687504021105535545e-02
2.266647071735887475e-02,2.475496889416627447e-02,-1.769938717072766163e-02
3.219049471192503287e-03,2.966105759509105391e-02,2.888537977550048944e-02
9.997428319172722844e-02,3.752311149120492184e-02,2.572154577106197659e-02
5.860563137667237216e-02,2.471134671596398810e-02,4.022857901418487592e-02
4.427735387998640512e-03,1.335599651177577386e-03,4.131343625973398631e-02
4.510237050208135146e-02,-3.546481943029154010e-02,-1.257135139796392888e-02
5.104348843233355582e-02,-2.373565426467275433e-02,-3.890030637422148968e-02
1.251568515598466304e-02,3.224958267150401792e-02,3.351139255695412961e-02
7.021849266223971486e-02,-8.592389086893731376e-02,2.460153785428342496e-02
-4.128175077751251171e-02,4.017132372544913316e-02,-7.664084436614722502e-04
-7.023776455600981572e-02,2.398481269999186080e-02,-4.964642915052441124e-02
-4.226456252839804612e-02,-4.820763362798371338e-02,-1.023925965376706743e-01
1.374840403455156700e-02,-3.276851912124682797e-02,4.975473377140773173e-02
-2.313822733572891074e-02,2.797895645637599529e-02,-1.642500346417433491e-02
-1.164065449188030239e-02,1.128727831030416386e-02,3.288694189552129887e-02
2.545339613561410988e-02,-4.051212441985429374e-02,2.714517047047809717e-02
-8.996069556647235885e-03,4.863019226866860389e-02,1.313907530330358413e-03
-1.328189633029030862e-02,-4.199727007207653545e-02,-1.788670662818458643e-02
2.781892882017560770e-02,-7.946903196340691922e-03,1.462257407860119707e-01
-5.145369388445676651e-02,-1.589127943987498140e-02,-1.499222699175013058e-04
1.928474329560601885e-02,5.451231106820481065e-02,-2.734096860412659619e-02
-3.699281893021761497e-02,-1.124922183292589688e-02,-1.227399664151792701e-03
-1.873258388204921202e-02,1.207647297199528937e-02,-5.347775770331721773e-02
-6.520560535416275449e-03,5.358266064608988022e-02,3.140674483679178897e-02
-2.872429700024035915e-02,9.517128878971652106e-02,-6.723568461563116799e-03
1.160467168184343457e-02,7.365757023189515099e-03,-6.254973082039086418e-02
6.355828976168399584e-03,-7.589020356506927245e-02,-8.152534380724586749e-02
8.401266271224342580e-03,6.056996098140686154e-04,1.151874645682782194e-02
2.078313288753643254e-02,-5.408735774912357824e-02,-1.592291154959901700e-02
-3.131067302419363041e-02,5.786704256019165049e-02,2.975047558380794488e-02
9.503456133634652359e-02,-3.295184559215649095e-02,-3.329225288359430324e-02
9.968267225876662266e-03,1.167269435125714711e-01,4.061115252302226197e-02
-7.955047818947251839e-03,3.436042505571263589e-02,-4.873685413836785149e-03
1.066753442380646427e-01,-2.528253780408765833e-02,-4.018579519654457560e-02
5.437751507986546967e-02,1.665020497868517635e-02,-7.432598932593499630e-02
-2.686877031286057441e-02,1.103913568744570133e-02,7.602650410227091956e-04
-1.701197946601246819e-02,4.624810040850606263e-02,1.553589665255263562e-02
-3.267184448942686559e-02,1.740481064221496149e-02,1.968344083169658570e-03
2.863706712591047171e-02,-2.501272327699236367e-03,-5.836445982062273691e-02
-1.127764821868337819e-01,2.633965116245757382e-02,1.941635262895291883e-02
2.460462925766117911e-04,-8.840186187555120617e-03,-4.850303640203838113e-02
-3.931215023640023676e-02,3.618908622014398169e-02,-4.312841517765732616e-03
2.698270507868277823e-02,4.485612783135375925e-02,-2.922997941782135012e-02
8.505093900090172909e-02,-3.734457005105311367e-02,6.507415799250254639e-04
9.093752598519355690e-04,-1.092912991071304414e-02,-2.624633885994463040e-02
5.284048984618958111e-02,-8.307535074129016039e-02,2.722166271965630047e-02
5.100695294773167909e-02,-2.586211284437067021e-02,3.444349778386943117e-02
3.872787152886478148e-03,-1.005845443976176139e-02,-2.617762782340311151e-02
1.405171388963882655e-02,1.543205098617321178e-02,2.225119453156160915e-02
3.125026665989734387e-02,2.768760434141711180e-03,1.229830587970300558e-02
8.408359929113241871e-02,-3.427420303657468127e-03,-4.321314701248069740e-02
4.192180739415283554e-03,-1.414618904438645630e-02,-2.349804635476883830e-03
-2.595329280106463063e-02,-1.913005891378308926e-02,3.727059844753095874e-02
3.244543534081073544e-02,1.052333405516623840e-02,-2.463536092614596398e-02
3.352727936021366456e-02,4.646316737176228728e-02,-1.011887183804896506e-02
-9.510408302790651636e-03,9.040844837126117695e-03,-5.535112208916143084e-03
6.167329729102679313e-03,1.223013795426306644e-02,2.996378809531394585e-02
-4.816881550249009492e-02,-1.034629800517290615e-01,6.744725901010614755e-02
4.306587208361448843e-02,-1.293780558953830893e-02,2.018464361196832882e-02
-4.041373894491975816e-02,2.821723729733446873e-02,3.777478324859797482e-02
-5.213439297036021741e-02,-2.577580404141347967e-02,4.832479394460392763e-02
-3.820835319147802139e-02,1.911678599355458308e-02,4.934109612833463554e-03
1.659432432021942447e-02,4.850792722944921587e-02,-7.683561741692911118e-02
2.789746540563316571e-02,1.942128231902815264e-02,-1.742227911242516525e-02
-4.457916898869319390e-03,2.902839505538723670e-03,-3.342447917125958290e-02
3.120302448615792576e-02,2.440266570130321042e-02,3.594113810438198664e-02
-3.155211150489002636e-02,4.061943897687873839e-02,-5.479131495244996680e-02
9.328066249417546821e-03,4.505574104938590146e-02,4.922093001182207411e-02
3.122030470643738422e-03,-1.979832480744536313e-02,1.119756773024132603e-02
1.691512758693925617e-02,4.884602693487374164e-02,-5.180839448302267287e-03
5.047299029445260349e-02,-4.595539445942534856e-02,1.609406293038954591e-02
-5.563790331801593547e-02,4.607372566585003770e-02,-1.193893845842669728e-02
5.726372581304423753e-02,5.034044281691783806e-02,-2.454764771772944415e-02
-7.806376627783688169e-03,2.412449000778942119e-03,-3.070864714923483840e-02
-1.758985195881045821e-02,-3.697250949933632985e-02,-5.794272266636860819e-02
-7.955847479746544493e-02,4.049062171118247150e-03,-1.387394642582293817e-04
-2.187677036837654479e-02,5.312258034966157311e-02,5.900525772114594003e-02
6.142457457280772054e-02,-7.090139384677518648e-03,-2.341469648883882579e-02
-1.504387364801169219e-02,-5.189111439773147092e-04,-3.585933630674167233e-02
-4.509027375303557156e-02,-4.566113915511127441e-02,-2.164982075306697007e-02
-3.912893800854954501e-02,-4.044997854405994742e-02,-4.032842627328877411e-02
1.907905245250013024e-02,1.343700422280475967e-02,-4.855594959312020849e-03
-7.408020017706927474e-03,4.231608550192383217e-02,6.392336048371380017e-03
-2.964133663062104920e-02,-4.463206872428591120e-03,5.928877314479767680e-02
3.411870543134994799e-02,-7.776383648227113039e-03,-7.192385181802937733e-02
-7.481888323708396800e-03,-1.139618452291800942e-02,-1.278725795557960829e-02
3.736863609520069823e-02,-1.233197740624389013e-02,1.131282615490232513e-02
-4.384274581702087177e-03,-1.553794823001187868e-02,1.929801760627154750e-02
-5.138812306143044489e-02,-2.500167503306680722e-02,1.797493630502826692e-02
-2.018044750340335092e-02,2.779875560307697863e-02,-4.404130246774987795e-02
3.114224524928756350e-04,8.505410381336367398e-02,9.946179020659066949e-02
1.029585825428305269e-02,3.983252441556262707e-02,-9.834779724288583713e-02
3.883175748899642815e-02,-6.997924145190233258e-02,4.821902911821875082e-02
1.871583043006112834e-02,-1.830989504680932342e-03,3.104623800809694356e-02
-2.980514475348125525e-03,-3.982425189321507630e-02,-1.636771627690119038e-02
7.042552250752753297e-03,-8.977861813103189814e-02,6.079297859368739537e-02
-7.059049633573691307e-03,-2.810051409853256757e-02,-7.652335803583411311e-02
-3.192247065257915184e-02,-2.581631219213807379e-02,-5.746500244997126972e-02
-1.322873446129743114e-01,1.005384959227658033e-02,-1.290912579654927665e-02
2.094105270143718778e-02,9.395853332378228950e-02,-6.205704220181280234e-02
4.992867921907624684e-02,7.556528261518195844e-03,1.396358084373214639e-02
-5.412943993594272057e-02,3.410589156177134401e-02,-2.795028539994577274e-02
6.831795215736681526e-02,1.446538420472812635e-02,-1.669234082635339886e-02
5.137767437635476497e-02,6.886418656505060437e-03,-3.321319304225764379e-02
1.764149563868452897e-02,-5.447885422730328053e-02,-5.852012506650474853e-05
3.263911765037029455e-02,-1.216190907279513130e-02,-8.362821450480184549e-02
4.416448527205051738e-02,-1.677406186521761267e-02,1.792912553956028943e-02
-2.530600497274447525e-02,-2.189616442078849007e-02,-7.688572663136513871e-03
3.871991035331456832e-02,5.355918795738055793e-02,1.452930502359502281e-02
-4.393580629723664588e-02,-3.783528243622451964e-02,4.436304566151694218e-02
4.265479466932259323e-02,-4.740286235607491655e-02,-1.233702263152978290e-02
-7.613658533280539230e-03,3.825459970939251719e-02,-4.513087575913424243e-02
3.184624203923078906e-02,-4.212688828596569679e-02,-5.225107713560828843e-02
5.110995019167766107e-02,4.552866632187631962e-02,6.488459745277896928e-02
3.489621567407273639e-02,-9.142718973896998835e-03,-4.592570788935818743e-02
8.070902345954696772e-03,3.913986568456736398e-02,6.377932624463009126e-02
-1.955316908316134805e-02,-5.889285619933752602e-02,-3.126291694296164103e-02
-2.142521613419965526e-02,3.518734375948080056e-02,1.040056200322014845e-02
9.851839507449786093e-02,-9.275357052099211796e-02,-1.654551256760364644e-02
7.205251336873989831e-03,7.893267796762618374e-03,5.321139498332931594e-02
6.410986062965082222e-02,6.030981283101073676e-02,-1.003214268309553237e-02
-3.284684965233816700e-02,-3.669566685307316944e-02,-8.132869910657726520e-02
-1.378676612070730244e-02,-2.024690427169495086e-02,3.171479383801752150e-02
2.731195223333211450e-02,-2.364694536871372182e-02,1.789241462095051468e-03
2.866344435084280245e-02,-8.808174271347460338e-02,2.358054485121483662e-02
1.259913095814868544e-02,-8.542509876039539041e-02,1.831635270210309543e-02
4.478344201322347062e-02,-2.620256632590036404e-03,8.849046309721535913e-03
2.393867776176600293e-02,-6.612175215900446823e-02,-6.365527281425566175e-02
-3.956036006189588700e-02,1.255307737469576849e-02,-2.838716501079860399e-02
3.036451971541444944e-02,5.856388119716136875e-03,3.441308643410034840e-02
1.251174146260148473e-02,-4.503811551348570197e-02,-5.599727780738440741e-02
3.976981433254630355e-02,-5.103814667024057783e-02,-7.717182078751828878e-02
-5.286327890740006447e-02,-6.148740560075467709e-02,-8.860381253252926081e-03
-1.988961261341605155e-02,4.204754035441693460e-02,-4.163676265593359987e-02
3.997473476917717122e-02,3.866802024040511682e-02,5.001255363593137826e-03
-3.510572830898867069e-02,2.904959131817273776e-02,-7.246340847297323695e-02
2.564686371276163335e-02,-9.578413660081953884e-02,6.124525795337068361e-03
-1.550817550737662934e-02,8.691348213721046545e-02,-5.144636466973233346e-02
-1.066881030988985207e-01,3.000598474174520983e-02,-1.226015439074634381e-02
9.713917262676231845e-02,-7.898494059208326090e-02,-1.150809732969109989e-01
3.967493091749884487e-02,-9.951186392852993945e-03,1.939537997980362791e-02
4.413509367705657771e-02,-1.323206396341572999e-01,-3.172295795952007058e-02
1.569250935632066080e-02,1.401538058932740201e-02,1.977311323181335165e-02
-7.703564137485174879e-02,-1.613232181799251208e-02,-7.801499963566558074e-03
-1.550228047369393500e-02,-4.703340529511816637e-02,-1.964726104600320392e-02
-7.794379814897211926e-03,-1.058355717609044816e-02,-8.431575883595449072e-02
3.998559748390119462e-03,4.222312720964729524e-03,3.800030003346913793e-02
-3.580104331129718015e-02,-1.681033636732572750e-02,2.104582705545378005e-02
4.270711320853943366e-02,1.584983855564593008e-02,-5.650052578924385019e-03
-3.039220977666302979e-03,-6.434140751192052310e-02,1.970268618701418589e-02
7.556755826669188034e-03,-7.508459249672171099e-02,-1.243120749125415140e-04
-1.631946386333564883e-02,6.881080562504440779e-02,-6.049016398556933405e-02
3.553752446988410474e-02,-2.983354787664733304e-02,-3.575511922537498444e-02
-3.413000814837920116e-02,2.393512671384750642e-02,-3.427147678347519828e-03
-7.171639314629669158e-04,-5.653941216004768067e-02,-1.096664067349275695e-03
2.901201087276909438e-02,2.006829160954938952e-03,-1.262035940353449948e-03
7.098507085959036844e-02,-3.348935373260022216e-03,5.939180867917805834e-02
5.650730669390477412e-02,4.520309495879838713e-02,-7.391599143637854648e-03
-3.256837324318174326e-02,-1.095742008476450254e-03,-4.251496117602160396e-02
3.771115545893178461e-02,-3.364092045643974488e-02,-6.764436421953733125e-02
-5.510250311146409202e-02,6.881177761370729090e-03,-4.167841511731319032e-02
-3.599601429036958233e-02,4.656914238228329617e-02,-1.878899623337039113e-04
1.094672190269477350e-03,1.861893128566004946e-02,1.645374221548127555e-02
5.157314352792706155e-03,-8.244207857084582050e-03,-4.262653276331306029e-02
-3.371450923073564948e-02,7.966352295684445139e-02,-4.948627694195416316e-02
-4.036419934687220795e-02,4.279374444292061846e-02,1.470665466031679039e-02
1.795254690695808134e-02,-2.443113662822675794e-02,-1.312037631933671809e-02
1.068359081629356201e-02,1.004584352126995520e-03,-1.448904480458126833e-03
-5.072911882230920350e-02,-9.092650936026551445e-02,-9.276984159196251505e-04
-2.045374404392642396e-04,-8.371195172625023329e-03,1.393556503777067766e-02
2.996491621452785498e-02,7.014597156368491959e-02,4.381695734657458513e-02
-3.801171513856756168e-02,-1.385080330025790368e-02,-2.064788945488971877e-02
-2.969724862329964354e-02,1.791055490118525009e-02,4.966057605423206817e-02
4.016233062034377764e-03,2.036555391126904785e-02,5.215623696798558223e-02
2.212396633425257192e-02,3.559831709093306401e-02,4.430343333166704423e-02
-1.073636433102393350e-03,-8.463414728794668718e-02,-1.394086462757210959e-02
5.602358442535652905e-02,9.520716256957913182e-02,-7.968669981427697890e-02
-3.087214681678303319e-02,-2.518366845089424488e-02,-2.297308550389950965e-02
3.508890413332584057e-02,-4.088442339308291651e-02,6.792885863702406712e-02
6.588315183656675775e-03,-4.372728825946171211e-02,1.666600619667698777e-02
1.269223573713796314e-02,9.282327313986023232e-02,-1.574764842840038065e-02
2.210400116918633320e-02,2.108001985086538355e-02,-2.360333453387720591e-04
-6.869361907256035793e-02,5.688256843665030239e-03,-3.080865318794140731e-02
-2.074359474616782953e-02,-5.856441922344985535e-03,-4.527294006319920738e-02
2.186651532466072148e-02,-4.017164114173046863e-02,-3.125059022393696789e-02
-4.956516509107405932e-02,-3.727726457251238912e-02,-1.396346334720821765e-02
5.070879042149071397e-02,-6.098397488267117252e-04,1.269015177129051604e-02
4.233255877667656264e-02,4.603825569975169424e-02,1.557266535510054561e-02
3.751770293962526648e-02,-8.317503784992665017e-02,8.627205600734287605e-03
1.517964524321590430e-02,-6.417742847501275993e-02,1.290054283239761533e-02
7.445002581533721742e-02,4.899020415639623871e-02,2.300321136054920418e-02
6.955363111833435955e-04,3.904007529646182084e-02,-1.609822708767336477e-02
-1.806302153563046908e-02,-2.332938091178039103e-02,3.518102206503553875e-02
4.221799199288758103e-02,8.386794575095408988e-02,-4.540282353464009796e-02
-4.007613209560611199e-04,-2.114731959513359988e-02,-1.109908532054586228e-02
-2.317279650661611262e-02,-2.009735419871181220e-02,-8.953905006521141116e-03
3.323844093504686042e-02,-2.290220830844594269e-02,-4.031580656528524487e-02
-3.695221332717658902e-02,-5.481401937893864464e-03,-2.797750167325153622e-02
-1.272481619524995673e-02,-1.536632501211892925e-02,7.585655766548547729e-02
4.063818261937596904e-02,2.569298047530189227e-02,-7.502958380425388263e-02
8.133334065308082950e-02,9.053591961585545286e-03,7.195571274749149211e-03
5.836581725625927114e-02,4.776647903474566526e-02,-4.479856176991129160e-03
1.766186433805565139e-03,6.429286141435597290e-02,-3.641827324684913936e-02
6.038250216243918472e-02,-1.287354024492970428e-02,-8.575211179712552423e-02
-1.741912271068204315e-02,3.459550438495209018e-02,-6.357719931936679780e-02
3.335287079880990685e-02,-8.137871599129803402e-02,-2.134230180574714364e-02
5.135150353842120319e-03,2.784379435993036399e-03,-1.288831496483731354e-01
-5.824671404258704652e-03,2.909568316725811774e-03,-7.422374919777785518e-02
9.431867969330912441e-03,1.492863903137448163e-02,3.747790373196158153e-02
-7.535664271837516984e-03,-1.704565911029365041e-02,-2.399466744386430719e-02
-1.886683603314164015e-02,5.769512578766836097e-02,-7.880661273242435538e-02
5.589079090831264307e-02,1.195546821359436476e-02,-3.744038001249751918e-02
-3.603654540444302390e-02,1.029645805577391882e-01,-4.391965363502544316e-03
-4.421321387438077039e-03,2.600326803436111764e-02,5.620617936402470816e-02
-4.655969448633117541e-02,5.219380373351908270e-02,-3.667641494416037234e-02
6.536227822648678354e-02,-1.011265282799888587e-01,-2.791951032674752989e-02
3.298499444893633614e-02,5.096274384026325266e-02,-5.485626763849390380e-02
-3.406208988380165364e-02,-3.295080056029164092e-03,5.392606442077175349e-02
-5.644468962589033190e-02,-2.181869894150010453e-02,5.999896691933812726e-02
7.516655268577371318e-02,3.049041934150611630e-02,-1.417389820970827753e-02
3.178659442476588701e-03,-3.012800470984581744e-02,2.844597730983342704e-02
-2.887786748072990097e-03,-2.868773764714508540e-02,7.095338299195472209e-02
-4.137276870258969896e-02,5.510726278932383260e-02,5.689715510056136266e-02
-7.307293981793280824e-02,8.077501224166214189e-03,7.964386379602475530e-02
-3.134617855873442216e-02,-7.361811510169673223e-02,2.031210290140507066e-02
4.770176109753351129e-02,-8.480116918177614885e-03,-5.081190213222652741e-02
-2.472179513257573985e-02,1.864779183559554104e-02,-3.946393281322077562e-02
-3.112727649685037914e-02,6.339940303641808383e-02,-4.499550703815398400e-02
3.378241119046005185e-04,7.848103252738099223e-02,5.113972324158166244e-02
-8.175307170786036415e-02,5.840187978186361234e-02,1.795535426733997544e-03
-1.761432335380866410e-02,3.917651387043732253e-02,3.729576583144290219e-02
-5.254410462680939725e-03,-2.235272660860708818e-02,8.951896931479097399e-04
1.733163705712826089e-03,5.243317437220928329e-02,3.496001186317253956e-02
8.249573128813676715e-02,4.288235770066528563e-02,4.455668799354453591e-02
3.834080253339498118e-02,1.925589893676831268e-02,3.853759912890890316e-02
-4.911305013080553838e-02,1.213370618231020132e-01,3.915789974016417596e-02
-5.802870149089395940e-02,-4.288679276174169053e-02,-3.863421838910082590e-02
4.597089256587768430e-02,-3.719257182570359990e-03,2.350312919606586601e-02
2.188419975465337453e-02,-3.954225593562762865e-04,-1.850526719150587945e-02
4.746875867100374367e-03,-1.553676223327713976e-02,2.766673937152352297e-02
-3.253662357338413941e-02,6.748931575725286569e-03,-5.630105383459066415e-02
-2.734216773730541519e-02,-3.645438164935457803e-02,3.131207959857425227e-02
5.539244701356642493e-03,4.451541465441410939e-02,2.802380650367228276e-02
3.428011531658792244e-02,2.261354784205295287e-02,1.789905629315822685e-02
-9.241579997122612022e-02,-8.112318791801888251e-02,-1.002864291718806589e-02
2.307141912346142090e-02,3.041313075092011431e-02,-3.983479580582287988e-02
2.134894760582229170e-02,7.293389291175611522e-02,-7.997846562926473959e-03
-3.392433905310138914e-02,1.843193815127422766e-02,-5.709107584222155446e-02
-8.898466253614123467e-02,-4.296558662527223682e-02,1.169954392910360977e-02
-4.087201677307353287e-02,-2.749583354326586015e-02,-6.693019010921121004e-02
4.380144824952069554e-02,-5.731259976126015787e-03,-7.104378394591359669e-02
2.478372744839217601e-02,3.511722542247798506e-02,3.335767734101250520e-02
-2.098490712937146896e-02,-6.183550484198901964e-02,7.589225877466621029e-02
1.744054032435586946e-02,-2.225974507326478752e-02,-1.740586012189615506e-02
-3.883789617436265995e-02,-7.410035591993092280e-03,2.398375736419844015e-02
3.774393386925552901e-02,6.366768166049939504e-02,-1.716292307866210121e-02
-1.344320189491883880e-02,-1.208560447528706644e-02,4.293848356865350054e-03
-3.725288236471738235e-02,3.372990995757517430e-02,-5.341076897331980579e-03
1.568468295660687545e-02,1.918053320968067521e-02,-1.577179570189142857e-02
-6.885160290500875503e-03,-6.244880181592154383e-02,-8.015669369070609063e-02
-5.658242316447444076e-02,6.990013078572093752e-02,-2.949985256551436452e-02
-4.941539030786623599e-02,-3.017465841493950640e-02,7.053256912066064969e-03
-5.162940200010176367e-03,-9.569136320785515126e-03,6.102838085336607932e-02
-1.591190341121625357e-02,-4.658857666609203529e-02,-3.119853984933441786e-03
1.679196704644403751e-02,6.200894430630168180e-02,1.132384306613488413e-02
-1.278537491303253712e-02,5.612781840247536326e-03,2.715327650256380704e-02
4.305458452682556225e-03,-8.142822964150991938e-02,-4.673379858653792240e-02
3.816433353539648576e-02,3.324887094900089851e-02,3.623747925155346161e-02
-6.806371634153352002e-02,-7.092286645195256325e-03,-4.154395977651758774e-04
3.488347066593057433e-02,3.599498524221364255e-03,-3.912086888286903097e-02
-1.203201826328900714e-02,4.697087879046405595e-02,1.223037580577857747e-02
1.924311829888066677e-02,4.432099930056358772e-02,4.023980242414519799e-03
-9.908894118797964209e-03,6.316130147930190675e-02,5.873692667079514693e-03
4.252487195706865751e-03,3.979548305587052998e-02,-6.739562140085590680e-02
-4.639480848078977177e-02,-5.820882127789304278e-02,2.793494628970041513e-02
5.476322695266103158e-02,5.050087999698107261e-02,-4.092093689290931722e-04
4.152058989059140282e-02,6.994814834316569196e-02,1.104512049849621508e-02
-1.692640400585620347e-02,3.917429480199505903e-02,-1.877341390679864927e-02
-2.769147907032483771e-02,1.351327578996171360e-03,-3.632190065760682041e-02
-2.300319949533761663e-02,6.639016646443526848e-02,1.914822718998921564e-02
2.226321546133839743e-02,-8.608828526146991220e-03,-4.540021366276789094e-02
1.122229894412077461e-01,5.481455494970771712e-04,1.168604699722147061e-02
-4.233401021528125988e-03,2.300130461375472779e-02,-3.834824488899833683e-02
-2.979536460113334576e-02,-2.917407422698434921e-02,-2.183140079342580156e-02
2.236052413703511904e-02,-4.480753023762847759e-02,2.211961295744582778e-02
1.614928944930184296e-02,-3.930018179005209666e-02,-4.712390756759224364e-02
-1.253963080661372673e-02,-3.850409792180417567e-02,9.130166902895012551e-03
1.077252082790294135e-01,-8.139639112187217751e-02,7.780587296543749198e-02
-1.151368800924159053e-01,-6.740442724584597102e-04,-3.227351149263798374e-02
-1.027665960945642679e-02,-5.926660024323715525e-02,4.870187645769334661e-02
-6.518577022032516662e-03,-2.302081499992805411e-02,-9.368725377543728194e-02
2.609703271635537003e-02,-2.840878944575010376e-02,1.533757947225776463e-02
1.826290635455973116e-02,3.616465885498561239e-02,-1.754479703543819144e-02
-1.884702134339208066e-02,7.723267588693848162e-02,2.837556828273447851e-02
-9.094912774471128336e-02,5.954717236099148908e-02,-2.073299176888969766e-02
1.558061522404118743e-02,-1.004443656461382998e-02,-2.072573816504841293e-02
2.035855356535797717e-02,2.339659146194972977e-02,9.351110571987685666e-03
-1.670302732922809841e-02,3.164832278604413907e-02,8.467047782850627971e-04
3.724854858316836714e-02,-5.505586659307824815e-02,2.064070687941525414e-02
-2.373034311179155788e-03,7.461003945870285647e-02,-3.661562709377892688e-02
2.232963133873781467e-02,5.196453247617014576e-02,-6.307276001772063601e-02
-2.563878500344776365e-02,-4.123298795461602579e-05,5.178230498554388384e-02
-6.918353989502826380e-03,-8.937901005874059751e-03,1.776832283211402658e-02
-4.620342960929064990e-02,-6.958471805664304122e-02,-1.816410481545676150e-02
2.387593157442312666e-02,-6.004646068465736841e-02,3.355674424833286068e-02
1.219029512772679125e-02,9.366595839159705394e-02,-6.445228532974763003e-02
-5.430307189552856934e-02,-2.663769912730847358e-02,-3.651534689803132699e-02
-7.750436395884688183e-03,-1.150479349102641498e-02,-7.833883110791697857e-02
6.317022011899857403e-02,1.318466719009600205e-02,1.460552863510716781e-02
-1.724505485022788734e-02,1.122719346729573499e-02,2.918414642539325383e-03
5.311612146679180191e-02,-2.355395051209075927e-02,-4.811828932815754439e-02
-2.544906748297731669e-02,-8.384542236683570349e-02,-3.822316057731642291e-02
-5.191425979510654737e-02,7.891638404755704772e-02,1.842349361004064906e-02
3.964959635065835181e-02,-7.040157052112665237e-02,2.261650552492326313e-02
1.253879244946151834e-02,6.272361394953483715e-02,-4.803828685987898868e-03
2.644124306563585755e-02,6.144945613103597326e-02,-1.599200521271831313e-03
-4.994749434088965011e-03,-4.177725883101655879e-02,5.534082541980842040e-02
-4.341052094716437576e-02,-3.965352475228802603e-03,2.113647823763921060e-02
2.246865724078197721e-02,-8.422766312283101742e-02,5.576337853980214282e-02
4.393948241705311619e-02,3.469956797948278715e-02,2.107148674013830866e-02
-2.520095631189157859e-02,-1.018992070203271344e-01,-4.243736464181503687e-02
6.700183836789150088e-04,7.939568420743911212e-03,3.439572777378720192e-02
-4.830988989438705699e-04,6.921349008998541052e-02,1.335967731563293508e-02
9.435548808115344632e-02,-8.155760755209791324e-02,1.053876034934683042e-02
1.593635078227751550e-02,1.150580491459158883e-04,9.664593503273860922e-03
-1.106045748333252254e-01,-2.047921325687396960e-02,-2.821528161701413948e-02
2.333421107564704819e-02,-5.616542142191958964e-02,1.178520798598903935e-02
5.540649909224847069e-02,1.191458599262913524e-02,-8.093375700229728242e-03
3.724396164406301724e-02,-5.353720837209857003e-02,4.083082831330545059e-02
1.314549210950982129e-02,4.123324900069509635e-02,-7.903420471363679922e-02
-4.583159737811154377e-02,-6.219326891296309175e-03,-2.388744715050039255e-02
1.604343143758463555e-02,-4.164788026534855386e-02,-6.440392403500412588e-02
6.656207172157553587e-02,2.463952335502589061e-02,1.154141384727295008e-02
1.101394273340874398e-02,-2.041095366039078103e-03,9.101178101698218989e-03
-2.435824848367627166e-02,2.717185585800442008e-03,1.559823913902073401e-02
-2.368242304082388353e-02,3.928150274808299425e-02,-4.045404463304432680e-02
7.701916258744595511e-02,5.079841246678569455e-02,-1.640824027256242157e-02
3.221565365831800809e-02,-3.890740283873645247e-03,-2.055797362360280503e-03
2.624383868873708323e-02,4.914559324891015074e-02,2.924516938821540221e-02
3.393505308631621087e-02,4.266866487329153829e-02,-3.059751673689426257e-02
-6.575898768735430333e-02,-2.091906338358009293e-02,3.524549673546208128e-02
-2.587545531313904107e-02,4.580774682453248037e-02,4.373552066509149919e-03
-5.578962909977381451e-03,3.500225213596520196e-02,4.291550408660999710e-02
4.654175888647596460e-02,-4.095706659595881038e-02,-3.332191406903277104e-03
-5.911847118917712939e-03,-7.038068366733710862e-03,3.714208992685726768e-02
-5.265958517297166658e-02,7.146296911441865629e-02,5.722894262435613416e-02
-6.847565588032653028e-02,-2.640404808539525278e-02,-2.624321682496554703e-02
1.874844810478989640e-02,-4.436167635791554015e-02,-4.633047698158161698e-02
6.768516143175223876e-02,-2.002916032915949898e-02,6.028289437562858039e-02
-5.384709516101114646e-02,-5.084540050689326240e-02,1.417824895731254961e-02
-9.241904655904751090e-03,2.332134762194825600e-02,7.111555657496453076e-02
-4.291655754247580834e-02,-2.828938239090977511e-02,2.483582211174025639e-02
2.571982996510961336e-02,-8.091295726296179880e-02,5.663536873926566101e-02
-4.428549259090279466e-02,1.747525465039865764e-02,-4.003152714525723410e-02
2.993050533368747310e-02,-7.340471366583414814e-02,3.965660100251226089e-02
-1.477388074380125982e-02,9.603909564857751602e-02,-9.578977261862046608e-03
-7.140935655362273295e-03,-2.596967952640661867e-02,3.894141379189799274e-02
1.070670086172717944e-01,5.774264933222453267e-02,-2.632192084340682914e-02
3.629337805391852356e-02,7.413676930614279334e-03,-3.937302902018970790e-02
2.668154292772521863e-02,-2.349244801775763128e-02,-2.836326808500068755e-02
-2.328461497865156465e-02,-5.561387138719332823e-02,-8.736272352273519171e-02
-1.218158597614429515e-03,7.713953677322497524e-03,1.290870377867136187e-03
-7.996779576718364771e-03,2.959960111726629359e-02,-3.940136165671224294e-02
-2.073476075884682704e-02,3.152563970416521338e-02,6.162461436866333714e-02
2.206222254026088750e-02,-2.826419855947610860e-02,-3.497055302364630858e-02
-1.955566646875934924e-03,1.793382148843018081e-02,6.992839953614297943e-02
-1.190134363727100852e-02,-1.903952376133605587e-02,2.147750004900973730e-02
1.429757221346941720e-02,-5.422753415670806404e-02,6.885318743822395338e-02
-7.550744267829289855e-04,-1.012129436226897744e-01,4.672096741346267595e-02
-4.542097615664095894e-02,5.284375133042628486e-02,6.370166140617167239e-02
3.838848968902708325e-02,-3.898768497823536239e-02,8.478342783882656525e-03
7.473653842780370038e-02,2.234280802336343491e-02,7.148032051714360569e-02
4.533235881542295453e-02,-1.281882247694233427e-03,2.299381609143528668e-03
5.736435895092153320e-02,-1.044061934021257333e-02,7.684564122479975445e-02
8.307419381443898951e-03,1.072536653542885549e-01,2.168830937453672045e-02
-1.995242513056265724e-02,1.503527870245074775e-02,8.518342197992420997e-03
3.727557878021499349e-02,-1.087980183745026509e-02,-1.845066955114430321e-02
5.260161596637778769e-02,5.349801169490246873e-04,1.317782031243718184e-02
-3.711554808360917335e-02,4.586453964543028144e-02,1.699427146713172905e-04
-5.257671376493701289e-05,-3.168389050783213673e-02,-4.593593897879374999e-02
6.126913542407214086e-02,-2.664232707565864292e-02,6.780437538657431429e-03
4.387146457538510305e-03,-1.163322759598538030e-02,2.361595198554054115e-02
-6.566144754357633451e-02,-7.258169024786535750e-02,-3.871987078229677248e-02
-4.524111320285919245e-03,-3.924421222020803984e-02,4.641441864210787277e-02
7.476829507912190198e-02,4.744828086019003272e-02,-1.433594193567463114e-02
-3.454792698668041062e-02,-1.003343986782237636e-02,2.027384285145143045e-02
3.036888777187271224e-02,-2.265929845405618287e-02,-9.607497255611743142e-03
2.412842735106929606e-02,3.733976841193523827e-02,-3.461511829666338164e-02
1.219020142347733556e-03,-3.684174757821098104e-03,1.090912481643475235e-02
5.279913690219300432e-02,3.201833019186553237e-03,9.738311666097258443e-03
-6.820827361621856211e-02,-2.604921717833498865e-02,-6.082112408622071531e-02
1.825186337690216931e-01,-7.283530886778988647e-03,-4.531299908822947198e-02
-1.954771161640708049e-02,-4.168940938016758857e-02,6.833325480185910468e-03
-5.273776414057695233e-02,-5.343261942805865167e-02,6.401885133889904760e-03
-3.961038754547370477e-02,1.416218918680278369e-02,2.638755602267636377e-02
-7.612373476493236590e-02,4.490069537875909789e-02,7.520570686018945850e-02
8.548143511587628918e-02,7.662982612844597419e-02,2.371135609557269153e-02
-1.635909135413043947e-02,1.650022587414308808e-02,1.759301390717801002e-03
1.829155320073078128e-02,3.695091110245690008e-02,-4.229222797041438248e-02
-1.295452214600277888e-02,6.920462420315286189e-02,-5.401338115417620572e-02
5.966824924265606844e-02,4.360830877398647748e-02,1.841298764102848248e-02
4.517885874388041095e-02,-4.173868462991633249e-02,6.033121906039628363e-02
8.287189297902687601e-02,1.606382693737108680e-02,-2.483026313729491327e-03
2.633829757156762666e-02,1.252971903094252451e-02,-1.205818444724889374e-02
3.643821102448098481e-02,-6.189667684950144605e-03,4.680363846772706005e-02
-3.447518224441499784e-03,1.026857768773192401e-03,8.249980652538138615e-02
-1.586612353642340937e-03,-3.665195837360570030e-02,-3.442889731576437296e-02
-8.986127483898497664e-03,-7.440398500271247495e-02,1.947851969400975561e-02
-7.125450582148962035e-03,-1.082339289608989194e-04,5.492162498527614761e-02
-6.004508326128484702e-02,1.460759586510768440e-02,-8.882467577190637092e-03
4.327994205735227057e-02,-4.800380350197468865e-02,-2.010424622364250999e-02
-1.288964506678843755e-02,-3.718514881382091464e-02,3.093036437373306025e-02
-4.795561921379649928e-02,-1.102185792425292368e-02,-1.257120661425025106e-02
3.153407823925374193e-02,1.073240833944617617e-03,-7.572454144152493405e-02
2.313399575486795381e-02,2.293161716992619947e-02,-1.625909867634051445e-02
-3.154377929466990749e-02,-4.685267578700284125e-02,-4.570810273645671551e-02
-4.431025996026489305e-02,-8.579541801371208531e-02,-7.406439820611362967e-02
-1.086390362996639963e-02,7.264473130128865086e-02,1.696729789864828350e-02
-6.729282852969004081e-02,6.287670048667653652e-03,2.880592372084445768e-02
4.673295144626967573e-02,4.847265917730834289e-02,-3.113808936455142798e-02
4.336810410792993342e-02,3.960455923773296277e-02,1.070481443081025968e-01
-1.589953532384763557e-02,-4.594327905700135162e-03,-7.500817127744439927e-02
5.698779374694165623e-02,2.098279681650512193e-02,-2.920995584475754789e-02
3.392570961514549538e-02,-1.937827154139707894e-02,-6.531917110769090706e-02
-2.345026258471879718e-02,2.166137859925996306e-02,-5.158708967756736596e-02
-6.226182435544626997e-02,-2.316399479546520090e-02,-7.582436470628599323e-02
2.573216719889344362e-02,6.159977578353707101e-02,-2.464218835669561292e-02
-2.184501112139356979e-02,2.416954634940990040e-02,-2.354835448590255828e-02
2.239913366917636178e-02,1.097802121154578536e-02,-7.767091738085861799e-03
8.812037253751427851e-03,-3.465039260950186079e-02,-2.321835103290198488e-02
-1.481038836363759645e-02,1.097956674845562176e-02,5.740829273148451845e-02
1.293909331607332076e-02,6.410434996853872636e-02,-1.001204213013626859e-02
-3.790842021718677200e-03,4.810568160525820897e-02,6.877514302733202245e-02
4.707233908087468666e-02,-9.126893272297781357e-02,-4.802655407736045046e-02
-3.103241183676917758e-02,4.126387978687294858e-03,5.188684535346896332e-02
7.894120279413535668e-02,-4.340992481005770398e-02,6.563712880533562055e-02
1.054547823262880039e-02,1.133855469608859995e-01,1.124890682001451064e-02
2.483741196449934518e-02,-4.370297054017873058e-03,-2.478969862392469206e-02
-5.719508382308659267e-02,-7.555964325444721602e-03,1.868863890685615661e-02
2.774511503626143905e-02,3.137904262102569203e-02,-4.792582724611825495e-02
-1.253771073672080467e-02,-1.968910384530169616e-02,-2.580635442689028017e-02
1.488693270429195317e-02,-5.738732996390390889e-02,4.283519598177015254e-03
1.606587310539233510e-02,-5.813157338695597830e-03,9.376101575674111732e-02
6.346638805791009197e-02,-6.015038936477499609e-04,-6.102786755682220593e-02
-2.158291687597276021e-02,1.126498904507467098e-02,-1.617108833287795797e-02
3.050692872947912901e-02,1.507729465311650856e-02,1.439133319277785192e-02
-5.932093921861185393e-02,-3.721468096559379241e-02,-9.209358847306403639e-02
2.128871542233551090e-03,-2.006140578532970495e-02,-8.033128258176211456e-02
-6.833418019737041993e-02,9.750158332828907926e-02,6.550681779227852941e-02
3.257176353230582105e-02,-3.495791221423156375e-02,-2.945582032610921750e-03
-5.523299161945791069e-02,-2.990990255514219820e-03,-5.835142195788322467e-02
-4.783993572542930874e-03,3.823486778739860342e-02,8.781716901691105637e-02
2.581026620745372618e-02,-2.073392813110028210e-02,-6.869101183250922449e-02
-6.894692131142644842e-02,-7.624398149463870213e-03,2.796047682659508204e-02
-7.430808383345163803e-02,-8.161894095330805843e-02,-3.430061889079325660e-03
-2.277102747120627116e-02,1.441157622130380678e-01,7.324093389968808383e-03
4.211994575996793472e-02,-2.575696857577921758e-02,-4.066993352842099285e-02
2.460493176646548832e-02,4.831314066939815244e-02,5.623129206038578881e-02
3.109099634686922006e-02,-2.430543972855371548e-02,2.902004703845644656e-02
-4.922536517552512925e-02,-4.767759960644750439e-02,4.623620978583213581e-02
-5.561655524806416451e-02,1.234734612358739068e-02,2.707309733262659029e-02
-1.793380378572098297e-02,-7.217593434444267986e-02,4.568229157318351094e-03
1.090049476910671944e-02,1.489800101358375361e-03,-5.462643616942451652e-03
3.549896044951592750e-02,2.459238326979212852e-02,4.753804958041394496e-02
1.526370861922773416e-02,-5.013334119345213766e-03,-2.530347852929067803e-02
4.879372530936320479e-02,2.881975387291656199e-02,1.262500135614663503e-02
8.095473895340903059e-02,-3.698307257870398629e-02,1.471647377408192604e-02
6.792526448906953396e-02,7.803385757348128143e-03,6.888996293971612339e-02
2.765862287076999854e-02,3.704777899647376110e-02,-8.790223014047572614e-02
-5.858262393176286859e-02,-1.805607210965992637e-02,1.639376388003007876e-02
-2.577201116036090256e-02,1.486626425791164399e-02,-1.426208666252034955e-02
6.230759318889667053e-02,2.108127682032474512e-02,-2.003197575234720584e-02
5.646147858280961551e-02,-3.873995450607778390e-02,1.589002543418778501e-02
5.450914055814155834e-02,5.313404007614063590e-02,-7.132516303896886678e-02
5.088972621990019846e-02,-9.331048745984117654e-02,-2.750169021524248233e-02
3.465951527972691709e-02,-4.268744883736395185e-02,-9.299895451917626621e-02
5.615969576685719833e-02,6.266789562720154194e-02,-3.889774990415533623e-02
-8.062459322748341539e-02,4.428492324303355022e-03,7.676149822633167308e-02
-8.493717921012258754e-02,2.056519895730777106e-02,1.029993161331474449e-02
-3.261620832514267043e-02,-2.135041433103432307e-02,6.549442779822046978e-02
7.573056889850721118e-02,4.870070362482062376e-02,2.434732332777428052e-02
8.798809632764120758e-02,-1.670895856466174390e-02,-3.485122752162191778e-02
-1.926116035904437696e-02,-5.911872080260821560e-02,2.295808096148960198e-02
4.011203618401793652e-02,7.714736394846388734e-02,1.711933649118439760e-02
7.131340971753671876e-02,-6.567440005813984794e-02,-3.127862065866599418e-03
-8.052263917138480220e-02,-6.887229891037755652e-03,2.519960306447908624e-02
-3.064039010620383391e-02,-3.599084905988716998e-02,-9.617816755563947384e-02
-3.391108699752190536e-02,8.130494311060253165e-02,-2.804218212085199391e-02
-6.709036165637592697e-02,-6.659687716454411321e-02,-2.653078642332541356e-02
3.121469097824254579e-02,1.705728998233832158e-02,-8.067382466538538383e-03
1.001206571743572422e-02,-5.478627775811057560e-02,5.693960082110725157e-02
1.038106095373334814e-01,-2.560165554236441821e-02,5.546314279266661984e-02
-3.038266009439949226e-03,5.135806670216893494e-02,-4.633275502359505277e-02
-2.659537536661555832e-02,-3.444616675435262926e-02,-3.908311148512648436e-02
-6.147581915386661489e-02,-2.543051025726933423e-02,4.363037715783162768e-02
-3.540163151325946556e-02,6.286264263700047650e-02,2.373101829483972511e-02
8.555414593725939321e-02,-3.496606592322171192e-02,2.403133758878366402e-02
7.299915188290393396e-03,-6.755526073704530565e-02,4.656782490534997106e-03
-2.353075325150859320e-02,-4.735854725065470616e-02,-3.351036054065836128e-02
-4.699323662489318654e-02,-7.658483514484892840e-02,4.482318001159494442e-02
6.145200981780103017e-02,-4.459290046857840306e-02,-1.932760161281916675e-02
-4.850065598832847824e-02,-3.777079083451578140e-02,-1.701629793112896527e-02
1.728949304998185846e-02,8.944695007573347234e-02,4.485513199166886109e-03
3.677081231074141865e-02,-4.137030232637930495e-03,-3.324125114663635527e-02
3.517363633483034518e-02,6.644060119194518388e-02,5.877245677649846345e-02
6.784022053913094097e-02,-6.741061627691397572e-03,-3.126717833274311048e-02
-7.031304595299182718e-03,8.634556236340965030e-02,3.327143089391119274e-02
1.039595857896159943e-02,-7.499685406023777479e-02,-5.563076319805345532e-02
3.005667547028772601e-03,-5.230034360501634866e-02,-5.372710263451014462e-02
-1.032934568447447729e-02,4.344166694999380095e-03,8.185463220951148811e-02
6.446970380835908166e-04,-4.141845935157385805e-02,-1.048976229067314497e-01
3.675019114951037086e-02,-1.948810534866400124e-03,-6.817194660771324320e-03
1.319567589657818507e-01,3.959308420141509355e-02,-2.327046842387973588e-02
3.595517083792412749e-02,-6.528380359674366105e-03,6.373577282811591915e-02
3.060398312528859327e-02,8.580064280694396639e-02,4.488554458266236225e-03
-1.156474710779046983e-01,-1.689522588835875444e-02,1.643818447862008258e-02
3.572233128604303948e-02,4.227182645775202224e-02,5.155886256958842895e-02
-8.610954951528350387e-02,5.134103998522556583e-02,-6.225080856768608339e-03
1.851925601770593871e-02,4.377595362542253260e-02,-3.784710340675600387e-02
2.886307403972283164e-02,-4.030508305356009235e-02,-5.531591610325712477e-02
-3.191781528534576307e-02,4.629095321962464760e-02,9.082848916839139641e-02
-4.797171555600653059e-02,-8.602949300386041054e-02,9.076551514444225477e-02
5.254622746415443801e-02,3.696080592654355651e-02,3.586331182451846233e-02
-5.739161651881562187e-02,-3.558612556364280227e-02,4.325049208992457622e-02
-1.598461546134543124e-02,-7.112138129839228051e-02,2.922996449504086658e-02
-1.792196243114768314e-02,-3.312431359867316211e-02,-1.182384519421386115e-01
2.303706475425015138e-02,2.990339583471396043e-02,-1.570360748429760036e-03
5.716053585088930883e-03,-3.264751774498114711e-02,2.536756276247769878e-02
-9.183817338188621573e-03,-1.896144668514784803e-02,7.459048801616487145e-02
1.739243752216084252e-02,5.134313009422619006e-02,-2.258709486310487430e-02
3.896993692590551561e-02,-6.692803721463763678e-02,1.251170124411755957e-02
-4.810136035461301876e-03,-4.744330517151653520e-02,-4.150593084433975427e-02
4.859018076354795768e-02,-1.980257498585864459e-02,6.067797919909521942e-02
-3.114302479286444082e-03,6.184498997516726937e-02,-1.676073831523851657e-02
-5.718734843543255009e-02,-3.489528202823047320e-02,5.587134049201206848e-02
-4.629392330585980347e-02,-5.441652519297345697e-02,4.046558394912988174e-03
2.289873530220296050e-02,2.471321989603365507e-02,2.502366501429603013e-02
6.826569971788746909e-03,-5.689355383787997322e-02,-2.060379962607686646e-02
7.909720380378269800e-02,4.387641543397554494e-02,-2.709070069363370484e-02
-3.194111396153358901e-02,-2.812161228304628502e-02,3.957605015501530071e-02
-1.863313318194137480e-02,1.360501792429548787e-02,-4.200587518173853896e-02
1.022358363149954326e-02,-2.698614905046337401e-02,2.285149732105509757e-02
4.735149386392623755e-02,1.661689555716066528e-03,3.117621535815587666e-02
-3.806031961344108483e-02,-2.786682212639602502e-02,-4.843550510760163269e-02
-3.041270926693403348e-02,-2.799414841260297170e-03,2.071119805157861302e-02
-2.026581230973981216e-03,4.986285074667734518e-02,-2.697375993670959871e-02
-4.554631875381581763e-02,-1.876458938337422985e-02,-2.803674133045118422e-02
-4.184987334020071753e-02,6.435610397651302106e-02,7.238353906832152226e-03
6.454165767917791063e-02,4.159255463214932974e-02,7.258904668136544405e-03
-2.849414786510017297e-02,-5.914716624021078284e-02,-3.720176289087093885e-02
-2.323336673185969620e-02,3.112655298204662635e-02,-8.743184341930368766e-03
4.581925956685575785e-02,-4.617373396084287207e-02,3.745947692754104247e-02
-1.968404462829119114e-02,-1.156890967385303462e-02,-6.320594658541175970e-02
1.676611174544345370e-02,-5.709864361246670683e-02,-5.587967263277171526e-02
-3.431370330503206393e-03,-4.248792587287694017e-02,-8.979591431624989531e-03
5.017262063396342453e-02,1.753995231446555531e-02,-6.240698339818961937e-02
-5.475511947508123617e-02,-1.050660555223364295e-01,-3.752462295829542271e-02
-1.053574666698387299e-02,-1.860335504673814658e-02,-4.923004090615656220e-02
3.741099029886613136e-02,-4.559057496149646060e-02,-4.270698200900510666e-02
4.463935767558786100e-02,-2.813702663330354403e-02,-3.969536558059773290e-02
-1.312885464993639346e-02,8.749441358186215226e-03,-8.034817914616156076e-02
4.592183050405550943e-02,-3.780098239398069476e-03,3.906950300726889924e-02
-2.325367945225980185e-02,-1.334503682857832857e-02,-4.112915871347742197e-02
-1.027833462845867581e-02,-7.136210225358377568e-02,6.483957389112246505e-02
-8.535299593112883124e-03,-4.861740640434704386e-02,-3.500293941484718552e-04
5.523691548060503942e-03,9.871289241397963876e-02,2.534020333706487466e-02
4.367552559923476574e-02,3.833666708789586208e-02,-4.808472525868531799e-02
4.750603532144652939e-03,1.239893846712326365e-02,2.071158214577693141e-02
-1.205669011407538467e-02,5.022346156928608751e-02,2.561569997924646735e-02
1.269860052186816586e-02,-2.824210479791430112e-02,3.742146552955658012e-02
-3.686839140286409661e-02,-5.573991242930495527e-02,9.424835030499037437e-04
1.456477661265033040e-03,3.933456344267376864e-02,5.633126946654753997e-02
1.048185101168653544e-01,2.293762378419638478e-03,-2.786922366854547792e-02
3.889863076932387892e-02,7.573476026675158386e-04,1.322146908776160486e-02
-4.277935445509073453e-02,6.948500958164209249e-03,-6.415256192450860540e-02
-2.363325593257178253e-02,2.216003353506202159e-02,-1.003413801697924240e-01
4.482136781460509950e-02,3.069135042736502103e-02,4.123587242088827022e-03
-3.197158817790998406e-03,-6.811220339396445445e-02,3.598011815160032795e-02
9.444417462215448644e-02,-8.075133158126633279e-03,4.684407537829882867e-03
-3.406467825855562237e-02,-8.400580114595547834e-03,2.766660393160942297e-02
9.082013871396352189e-02,-1.145922603846100292e-02,-1.626161963321181821e-03
1.999547173356872737e-02,-1.896659484924713424e-02,-4.446167067953465946e-02
-2.813707162880376214e-03,-3.946964186622694409e-02,-1.033910555924437077e-02
4.439130878494283727e-03,5.177228052232834415e-02,4.813459348613921551e-02
-8.235456514395896044e-03,5.161060178958813693e-02,-1.723189976372116808e-02
6.736785353776489349e-02,9.371924500778556003e-03,-7.633785170899570760e-02
5.805537553218376168e-02,9.139477884119890164e-03,9.609759682476426770e-03
3.134278424535550701e-03,2.831449584094950130e-03,2.834704381552653751e-02
1.926822792935242376e-02,3.865496345473153506e-03,-3.338736765200242713e-03
-3.627278601792389284e-02,-6.896272242711619371e-02,-3.918817350080654877e-02
2.290486350416594263e-02,-2.514695655148853695e-02,-4.959832360998428502e-02
6.942800023428105649e-02,3.495875823401069921e-02,-3.142043398136219745e-02
-1.160210305308347414e-02,1.280432646653721987e-02,5.437925025882295316e-02
1.732563839082546311e-02,-3.301086911858528306e-03,-9.697316638024276736e-03
1.079868397515291144e-02,1.899958990875780587e-02,4.699131225157150010e-02
-9.768878300999357667e-02,-2.064901961135885353e-02,-2.568722675763222829e-02
-5.869472313976317052e-02,5.884669266837443125e-03,4.547994429734281835e-02
-7.342818524843420548e-04,-2.420394237205938937e-02,8.514293500500506873e-02
2.430718409334602786e-02,-1.247975961146892410e-02,5.384611385987294295e-03
1.214408444217339803e-02,-2.365210396330734433e-02,-7.320323541596986117e-04
-9.936287942240251345e-03,-6.257040470090964590e-02,4.352310231998935547e-03
-2.328359467588175455e-02,-4.404656458004452269e-02,5.172170062384698341e-02
-3.175975890292305481e-02,-1.394096472617688785e-02,8.425355251872741758e-02
1.684261644477565850e-02,-8.141014400127914719e-02,3.665002499593646851e-02
4.174596590342873059e-02,8.225965313461288189e-03,-3.334178441087746331e-02
-3.812595040366836829e-02,-5.187215055312271485e-03,-9.570782038515453227e-02
6.212312258948463062e-02,-5.799960939756294322e-03,4.254149885219660199e-02
1.960316234924585482e-02,-1.498792564445598600e-02,7.306883959893432923e-02
-2.193587578960801837e-02,-4.362287917142746579e-02,4.176546636328550693e-02
4.043733326759434837e-02,4.223808249310045948e-02,1.052812756826145418e-01
-5.165918366622527375e-02,-4.013941244007895870e-02,6.277662625071447986e-04
5.079349532582085741e-02,-2.309194289910651565e-02,-3.834925619308092448e-02
5.369550948435009019e-02,-1.696188539332739789e-02,-3.963631665873666027e-02
9.066293741705989950e-02,-7.656671500743933434e-02,3.382207636226345834e-03
9.149080977751929133e-02,1.699654092167434891e-02,-1.842422567488619448e-02
1.230974116380406311e-02,-4.231914263282011979e-02,5.191547757740168356e-02
-5.014329822562198918e-02,2.714904216384666363e-02,4.611459965156966545e-02
2.678538940618473141e-02,3.258050153023307055e-02,-4.378986872003358399e-02
-1.411125874926477848e-02,7.243489826698618940e-03,7.155085148699421964e-03
7.806027295531157983e-02,-2.024317231053079230e-02,-3.598497965688896710e-02
-7.283659273877163276e-02,3.776031372187477891e-02,-7.891339426287646841e-02
5.124900661923673106e-02,-2.197954088577109416e-02,3.639144958387290508e-03
-2.677684971124473165e-02,-3.130240960182511384e-02,-1.562133819055321060e-02
1.644307001384633787e-02,-4.039903712050722101e-02,-3.593682027940983681e-02
3.097818970193998850e-02,-2.777872565203491975e-02,2.268894097050677336e-02
3.050167412086702418e-02,3.226782262204386936e-02,-3.575597346428380924e-02
2.658396861154261118e-02,5.953857140925284362e-03,1.077117590957362842e-01
4.188511488782029404e-03,-4.781800089601506015e-02,-2.391537082716118853e-02
3.138898896043863102e-02,7.372175385747128940e-02,2.760615923628537138e-02
-1.652875089227836408e-02,2.717018959328813474e-02,-9.743450670497349336e-03
-7.848834356539097570e-03,-2.032430936677141059e-02,-8.518041713509076976e-03
3.413603584907771993e-02,-3.298026274539043318e-03,-3.098475048143451913e-02
-4.749196358905462267e-02,1.184297646307837714e-03,-6.323590614171199775e-02
-9.247349257874135434e-03,1.241796791238215271e-02,1.861535616081106195e-02
1.183411805872418808e-02,-7.447553054983951926e-02,1.682001586385529004e-02
-1.103353180100144146e-02,9.478873825939445816e-03,-4.880227058672146245e-04
1.599260205316928307e-02,7.065221704459993812e-02,-1.966812293076781668e-02
-1.349286883753533089e-02,-5.160968885838143616e-02,-5.332567284587246687e-02
-8.152501870722211885e-02,-3.782092064770237183e-02,1.558175096383560389e-03
7.258420388079626917e-02,3.125104696258981102e-02,2.161933399989547991e-02
3.145046810088537176e-02,-1.933474395583677924e-02,-4.286654922579399146e-02
1.203780409121886150e-02,2.538731224895928503e-03,-2.382960799031894061e-02
3.875727299719711888e-02,1.105563772444547940e-02,2.845074299472526852e-02
2.973148890394165800e-02,-2.101973551320358499e-02,4.103172311927378441e-02
1.285839139703648382e-02,-8.277133818775048169e-02,-9.735558374896428196e-03
-2.303631900598695353e-02,-2.464245532523371210e-03,-7.396381298224402601e-02
6.726266222500663569e-03,2.586974586855815810e-03,-2.815648345774672545e-02
1.110040765366343031e-02,1.488096328816601501e-03,-3.926220763526833829e-02
2.681285314003279546e-02,5.936159173868894856e-02,3.024406174355221549e-02
4.006633007690538900e-02,-7.093273334638815208e-02,-4.827638869205406330e-02
-4.803999356317855546e-02,1.949706958240311067e-02,9.711647763465513367e-03
4.413809429723076355e-02,-3.401355526408534474e-02,6.532965151761852170e-03
5.933527077817133538e-02,-1.289304945018866430e-02,8.276428411087917783e-03
-2.606247580282454110e-02,1.888392164425459208e-02,-3.991855940125269703e-02
1.476012091316267726e-02,8.010542295309841521e-03,-2.788142921531019600e-02
-4.352804792950380752e-02,1.549061986636890952e-02,-1.171855451342433685e-02
-7.580410806363276598e-03,1.574142087055072081e-02,8.142016485121715552e-03
-8.109180947192673808e-03,-7.814858059602297624e-02,3.096456522338299384e-03
4.664741122501925297e-03,-1.156028203516123835e-02,-4.234063654502176130e-03
-7.105735600835685895e-02,-3.251647814446435164e-02,-2.647841375012190482e-02
-7.892574752391337545e-02,6.030271756566596940e-03,6.367102482719834422e-02
-3.909313768825755514e-02,-4.816961526658196900e-03,3.427639731734810624e-02
2.397886801051189731e-02,-5.064162981274759889e-02,5.075275896306188222e-02
3.965279749943236703e-02,-4.808120975258810270e-02,4.452055949043556837e-02
-2.689208833669681688e-03,-3.653394011845248479e-02,-2.119593129965566952e-02
2.743185546363998209e-02,4.390561850206511386e-03,6.778783578463626856e-03
-4.615362960159800909e-02,-1.100889512526004831e-02,4.514552431703652835e-02
9.348038521045499635e-03,-2.937755785493988137e-02,-2.287505828705172634e-02
2.221409438995605029e-02,-3.310695316224707835e-02,2.281243667950065904e-02
1.165087821747697733e-02,6.716764547022578691e-02,-1.750263415675309964e-02
3.114395792948981487e-02,4.175866856512670117e-02,1.956980826667731668e-02
2.921791171914161350e-02,-5.379660277468811813e-02,-4.932673393826728092e-02
-3.610074163018268945e-02,-1.575900013192109775e-02,-3.525987643807043659e-02
-1.682635827727426217e-02,-2.898647193398829966e-02,5.034260296967571491e-02
-1.868598624156991156e-02,-2.905500902038348973e-02,-3.279748447293035635e-02
9.935752365479414913e-03,1.928020874533614487e-03,-3.887731734811828571e-02
-5.797024142400467733e-02,1.173767306575948348e-02,6.573715256245099559e-02
1.368126217053821508e-02,3.391496419772363491e-02,5.356461004829893985e-02
1.867085611762922537e-02,4.316662158709226073e-03,-4.951366816115645303e-02
1.497779219433295617e-02,-4.974102238583009983e-02,-4.462541825914213139e-02
-2.165668198893005991e-02,-8.883764707341851048e-04,7.377927099755662854e-02
-2.546304159515580534e-03,-1.995322868222500559e-02,3.058967409899693984e-02
-6.984016412840964028e-02,1.352237565478818775e-03,-7.009483801265202485e-02
2.283942349751044362e-02,-1.799280936265574768e-02,8.128435975994932616e-02
4.404633460350949187e-02,2.044251700340833644e-02,-1.220098164675777752e-01
1.544848687157293274e-02,-7.692743020980200366e-03,-1.051084851518218830e-02
-3.261885523399814940e-02,1.019194417108450629e-01,1.039724266421404933e-02
2.837486820083255298e-02,-3.597561371391615193e-02,6.118171578751329526e-02
6.588825000018189854e-03,-3.905065483262817883e-03,3.012229982128561152e-03
9.138420966473078180e-03,-1.119794438294833411e-01,-6.625584139776301285e-02
5.456650431388516964e-02,4.023484837253866325e-02,3.102195091959047621e-02
2.397035235355104293e-02,2.555636223420172659e-02,-2.571466632812665493e-02
-4.917598259433642038e-02,-1.835653647438737195e-03,1.076675142910061000e-01
1.996063549719604563e-02,5.698008266255461321e-03,-2.994473981810754498e-02
-2.079659719395230907e-02,-3.892730229909380224e-02,-2.774270244580822123e-02
7.077952506171043823e-02,1.934750722054212266e-02,-1.064733255599014244e-01
2.780949092063996625e-02,7.828847028657203236e-03,1.912867256822520234e-02
-2.879259431244439796e-02,3.366113390092941027e-02,-1.211447840016833220e-02
-8.675478866533060940e-02,3.224636056693707536e-02,-2.154067580588689228e-04
3.435742617970396345e-02,3.836592128997625556e-02,-9.278473331514698261e-03
-6.288525374733763829e-02,-1.164471018678316962e-02,8.579572942420558845e-03
2.118439967904314422e-02,-2.880328341089429672e-02,8.763211905355922093e-02
-7.364524039756932018e-03,-4.222228721600126272e-02,7.059796677124337283e-02
-1.181573201757658842e-02,3.982588082461880653e-03,3.114490363742643351e-03
4.314001326760013612e-03,-1.195650292018612601e-02,-6.069866584340632455e-03
-3.241839665673495324e-02,6.858350378621604071e-02,-8.637809455549992632e-02
-2.149882198031878577e-02,6.536443809974219754e-02,-7.521747051849969612e-02
2.193204463563423051e-02,-1.801327049409311501e-02,1.750300922400211887e-02
1.465275482627566468e-02,2.488664935523616020e-02,1.864468030374493920e-02
7.705615151717755407e-03,4.867094722741432955e-02,-1.213923868775982351e-01
3.586351217783369238e-02,-5.815778303993023729e-02,4.498792260801141862e-02
2.891237010997805158e-03,-1.609993650898972409e-02,5.187762194664860549e-02
-3.512364342649583211e-03,-5.765065632386828787e-02,4.275364763006371527e-02
-5.632790716301177419e-02,-2.615862053362578987e-02,-6.633549605137677163e-02
1.050924987686209684e-02,-6.906621222238221169e-02,3.166345128970376316e-02
-1.824761075328694068e-03,-9.553769522726443530e-02,-4.919700461723153576e-03
4.638128333724759675e-03,-1.118315765643105031e-01,-4.506620818365552478e-02
3.185304953555508078e-02,-6.423306708390438824e-02,9.809213519996584640e-03
4.762167313839760913e-03,2.090463507924697484e-02,8.598590559684243101e-03
-1.099135524881304955e-02,2.166796468543196949e-02,-9.345196773692662079e-03
1.855348918171216208e-02,5.179714222779061017e-03,9.490874331729434732e-02
4.280794007920428468e-02,4.213735167468885684e-02,-5.636092838389420052e-03
-1.508901171968488053e-02,-4.412186031087627497e-02,-9.509466629167938724e-04
3.617671787131918060e-02,4.543058451214439936e-02,7.565127512289417967e-03
2.066978467002550043e-03,-3.918026304144174923e-03,2.677568311518805505e-02
1.634247952254272787e-02,4.099438767250677268e-02,-1.182109966525236172e-02
-2.358367016305695091e-02,-5.637547492496447488e-02,-1.277624768815509466e-02
-1.150123952012994770e-02,-1.972042384008805896e-03,-3.882214105601199811e-02
4.156723768585924433e-02,-3.161675333311222968e-02,-2.097833701120414493e-02
3.524363234563025055e-02,-5.141187699793609012e-02,-5.153129041687594565e-03
3.750627832413958029e-02,-1.281115746424305382e-02,-1.440155299908776540e-02
-3.642982553824955505e-02,-8.129854336238256582e-04,6.278486166969359135e-03
3.528688649987358344e-02,-1.615374731168659969e-02,2.544056615990057668e-02
2.301352320030307722e-02,-1.060348126345603964e-02,-1.800721367691041422e-02
3.644609615994003765e-02,-4.231672639600975172e-02,-4.620222796944346150e-02
2.146115270094656191e-02,7.041627729069708207e-03,9.997206417289336566e-02
8.122478194497819576e-03,-1.395233713449213139e-02,-5.202010981607725626e-03
2.171811267597465595e-02,-6.777915458575453633e-02,4.251757833096724698e-02
6.611671727199928961e-02,-1.159214163796260799e-01,-1.115561506873950087e-02
9.095140840639941160e-02,7.894146575388574782e-02,-1.140683906244536160e-02
-2.897175689154185899e-02,7.407513112865368732e-02,-1.487965481529537372e-02
3.109478251114562719e-02,5.984623738914679469e-02,2.097996553228280783e-02
-1.006171673546745870e-03,1.037817030660499653e-03,7.592186371109253817e-02
-1.746615951363487615e-02,4.797718650762741038e-02,-2.610970613761592982e-03
-5.161304258657588295e-02,4.472906616895397196e-03,-1.154232360031021316e-02
3.279411292248277793e-02,3.400325500667277651e-02,-2.779215461586288793e-02
-3.033490442739429117e-03,-1.684617836386670051e-02,-2.088660843030289496e-02
3.722949459766475983e-02,-3.810493299327113309e-02,2.651591106086432711e-02
2.573074360083743226e-02,5.707059031900568041e-02,-6.808750743810165762e-02
6.112697086453715983e-03,1.209953615268937605e-02,-3.871587740246305170e-02
5.738460183059509306e-02,-4.263297697674062192e-02,-6.349510900634946879e-03
-2.586893968279999068e-02,-3.332072020733082424e-02,-3.572871031508473294e-02
-1.019288259017465115e-01,7.988580841800379737e-03,3.763512168169030198e-02
-3.267844178088547599e-03,2.435643226227053246e-02,-1.228337770278494639e-02
9.383801499351798400e-03,-5.672137185146701455e-02,-7.041292504989879117e-03
-8.504790324663107082e-03,-1.134768794862528046e-01,-1.217356093044158656e-02
8.894326151872812211e-03,-3.931843450427181114e-02,-2.179162217222881115e-02
7.672387081472639703e-02,3.062812480094864037e-02,-2.931425758640906348e-02
9.333349094633654197e-02,-9.436882923905884346e-02,3.195995155357940487e-02
6.243542140449060557e-02,-2.598677766856430718e-02,-2.714788470492588909e-02
7.066456860168110823e-03,-9.544044909237534013e-02,-5.090858174306894107e-02
-5.909263201499306492e-03,-1.716278566275165202e-02,3.232645313532041959e-02
-5.563222237196185915e-02,-2.695075228839378251e-02,3.020002118672423727e-02
5.270728212100155713e-02,5.422486920662870913e-02,-2.089886790061409524e-02
-3.838924254896922128e-02,-1.961265676462163945e-02,6.995418854711195344e-02
2.183544594991414581e-02,-1.129335197798860381e-03,5.236630742606115246e-02
8.073638751268216729e-02,8.534591325050218738e-03,4.786105820020618989e-02
1.695164104254338194e-02,7.030968330568704294e-02,-2.403271323443531560e-02
4.531573915766216876e-02,3.054412942403910911e-02,-7.435166424058473229e-03
1.054827953708950376e-02,5.350806057853726982e-02,-3.533928573299779160e-03
-1.038833378721917312e-02,-2.899058903240385454e-02,4.642690392052311286e-03
7.402259149823837980e-02,3.554800573833538646e-02,6.103948642322853252e-02
-2.259067071202632004e-02,-4.025332797760413500e-02,2.026530529648775183e-02
-1.536250835893935521e-03,3.560255340608380753e-02,-6.436176957537480259e-02
6.148342228232848636e-03,7.273542050692349825e-02,7.243932687799047032e-02
-1.636040964804963416e-02,-1.494658618677076854e-02,6.929268868725664467e-04
-1.839972540229921393e-03,2.342713072928773871e-02,-4.427317831880930171e-02
2.378672390103710524e-02,8.879989492086865638e-03,7.138094675193547550e-04
1.189561888407326962e-02,-3.895742798761447218e-02,-4.431304928140313015e-02
-4.865637877433117570e-02,1.305941141552552712e-02,-8.669352715844078419e-03
-6.842034864415344302e-03,-1.332473158566072589e-02,-5.619474728999439284e-02
-5.759356588233775082e-02,1.844718218088525069e-02,-1.217233794719838336e-01
-5.620922277008197354e-02,-9.385615935499987128e-02,-3.998476488734092893e-02
-5.153762527477576127e-02,-1.175529531984018453e-02,-3.001586319785260609e-02
-9.803257127766648940e-03,-8.802085008930218835e-02,9.263598761853431007e-02
2.112288611058684047e-04,1.615757039826807271e-04,1.789138711108157614e-02
1.790084816578681876e-02,2.060177760399209412e-02,1.146709863613508927e-02
-1.785584101616252001e-02,1.150202948778809679e-02,6.511873820949577903e-03
1.942169990260701751e-02,6.417767780148792012e-02,8.900058444651329226e-02
3.526001183085130525e-02,-5.874087718506705580e-02,-7.402607827741436441e-02
-3.236507326699025484e-03,-5.350402321755442364e-02,-3.089458244781176713e-02
2.076744682676904402e-02,-1.264540208744621870e-02,4.002702621972329539e-02
-4.962964279325506739e-02,4.786387418707261504e-02,1.442519640250832826e-02
-3.273072857602547098e-02,2.994487182401232156e-02,8.175128160101589880e-02
1.017806236213561824e-02,-1.046200752396361094e-02,-1.416362458141472158e-02
-2.147901615752167287e-02,-3.846639252454474300e-02,1.095326970398231847e-02
-4.839912416460451922e-02,3.181249351583127077e-02,1.411821130108261791e-03
6.957685973700648840e-02,1.446509302777210411e-02,1.427721198218370713e-04
5.115863702948023582e-03,2.385673851573723303e-02,5.098298084189700763e-02
-7.518774097899695065e-03,-3.433724417349686363e-04,-1.220703961133170340e-02
1.206458631842819264e-03,2.213130689881758623e-02,4.147224252511062109e-02
6.758017752425573947e-03,2.073087965838520466e-02,6.802186753211972824e-03
-5.751844241480270209e-02,-3.893351257671192472e-02,7.233474428685498711e-03
1.967668497487460103e-02,2.439435744853672879e-03,1.335219656343202867e-02
-1.993815817862481382e-02,-1.825911445883632647e-02,6.965149076528592831e-02
4.912308959673453851e-02,1.222306199835959152e-02,-3.797109934660405917e-02
3.982988244907233188e-02,1.815760688582239435e-02,-2.090489284689425742e-02
6.546571630712456902e-02,-8.820528338890437636e-02,6.674525710396985757e-03
-4.861961738746876927e-02,5.657196132848858403e-03,-2.940785962041316676e-02
1.224013581635746001e-01,3.959158653613275430e-02,3.318745359940224182e-02
2.668932854677611571e-02,-5.408921013965443253e-02,-1.268012347291097297e-01
-6.245794348127794646e-03,-1.573916166706006495e-02,1.380930149032320170e-02
-2.487942233033984402e-02,-4.688681277865905384e-02,-4.073904743282142499e-02
2.251878467304482996e-03,8.286345466446587427e-02,-3.996247923664195123e-02
5.976812840417563416e-02,-3.363372684174043697e-02,9.664915333499095318e-02
-5.022268317677575089e-03,-5.727274384476906816e-02,1.266394899197846591e-02
-5.986026457212978436e-02,8.475725426039773698e-04,4.867939350754506289e-02
8.556678167948780778e-02,1.358793623275256039e-02,3.313507856953531311e-02
1.126295914007963139e-02,8.188189426422194661e-02,-2.145440926244242263e-02
8.202489078780023091e-02,-4.460167654273892134e-03,5.042345508114495778e-02
