ref_gyro_x (deg/s),ref_gyro_y (deg/s),ref_gyro_z (deg/s)
3.543207813446885412e-03,-9.018205188478441733e-05,-2.214041970068620410e-03
3.543207778598446173e-03,-9.018205187194941518e-05,-2.214042025837780533e-03
3.543207743750005200e-03,-9.018205185911439947e-05,-2.214042081606939789e-03
3.543207708901564661e-03,-9.018205184627938375e-05,-2.214042137376099045e-03
3.543207674053122386e-03,-9.018205183344434094e-05,-2.214042193145257433e-03
3.543207639204679245e-03,-9.018205182060933878e-05,-2.214042248914414954e-03
3.543207604356235236e-03,-9.018205180777430952e-05,-2.214042304683572042e-03
3.543207569507790360e-03,-9.018205179493926670e-05,-2.214042360452728696e-03
3.543207534659345050e-03,-9.018205178210425099e-05,-2.214042416221884482e-03
3.543207499810898872e-03,-9.018205176926923528e-05,-2.214042471991039835e-03
3.543207464962451828e-03,-9.018205175643421957e-05,-2.214042527760195188e-03
3.543207430114003482e-03,-9.018205174359919031e-05,-2.214042583529349240e-03
3.543207395265553835e-03,-9.018205173076417459e-05,-2.214042639298503291e-03
3.543207360417104622e-03,-9.018205171792913178e-05,-2.214042695067656476e-03
3.543207325568653674e-03,-9.018205170509411607e-05,-2.214042750836809226e-03
3.543207290720202293e-03,-9.018205169225910036e-05,-2.214042806605961543e-03
3.543207255871749176e-03,-9.018205167942405754e-05,-2.214042862375112993e-03
3.543207221023295626e-03,-9.018205166658904183e-05,-2.214042918144264443e-03
3.543207186174841643e-03,-9.018205165375402612e-05,-2.214042973913415025e-03
3.543207151326386358e-03,-9.018205164091901041e-05,-2.214043029682564740e-03
3.543207116477929772e-03,-9.018205162808396759e-05,-2.214043085451714021e-03
3.543207081629473620e-03,-9.018205161524895188e-05,-2.214043141220863303e-03
3.543207046781015734e-03,-9.018205160241393617e-05,-2.214043196990011283e-03
3.543207011932556980e-03,-9.018205158957889335e-05,-2.214043252759159263e-03
3.543206977084097792e-03,-9.018205157674386409e-05,-2.214043308528306376e-03
3.543206942235637303e-03,-9.018205156390884838e-05,-2.214043364297452621e-03
3.543206907387175947e-03,-9.018205155107381912e-05,-2.214043420066598867e-03
3.543206872538713290e-03,-9.018205153823878985e-05,-2.214043475835744245e-03
3.543206837690249765e-03,-9.018205152540374704e-05,-2.214043531604889623e-03
3.543206802841786674e-03,-9.018205151256874488e-05,-2.214043587374033267e-03
3.543206767993321848e-03,-9.018205149973370206e-05,-2.214043643143177344e-03
3.543206733144856155e-03,-9.018205148689868635e-05,-2.214043698912320553e-03
3.543206698296389595e-03,-9.018205147406367064e-05,-2.214043754681463329e-03
3.543206663447922601e-03,-9.018205146122862783e-05,-2.214043810450606106e-03
3.543206628599454740e-03,-9.018205144839359856e-05,-2.214043866219747147e-03
3.543206593750985144e-03,-9.018205143555859640e-05,-2.214043921988888188e-03
3.543206558902514680e-03,-9.018205142272354004e-05,-2.214043977758028362e-03
3.543206524054044650e-03,-9.018205140988851077e-05,-2.214044033527168970e-03
3.543206489205572452e-03,-9.018205139705349506e-05,-2.214044089296308276e-03
3.543206454357099820e-03,-9.018205138421845225e-05,-2.214044145065446716e-03
3.543206419508625887e-03,-9.018205137138342298e-05,-2.214044200834585155e-03
3.543206384660151521e-03,-9.018205135854838017e-05,-2.214044256603723160e-03
3.543206349811676720e-03,-9.018205134571339156e-05,-2.214044312372859865e-03
3.543206314963200185e-03,-9.018205133287833519e-05,-2.214044368141996569e-03
3.543206280114722783e-03,-9.018205132004331948e-05,-2.214044423911133274e-03
3.543206245266245814e-03,-9.018205130720827667e-05,-2.214044479680267810e-03
3.543206210417766677e-03,-9.018205129437326095e-05,-2.214044535449403214e-03
3.543206175569287106e-03,-9.018205128153823169e-05,-2.214044591218537316e-03
3.543206140720806668e-03,-9.018205126870318888e-05,-2.214044646987670985e-03
3.543206105872325797e-03,-9.018205125586817316e-05,-2.214044702756804220e-03
3.543206071023842756e-03,-9.018205124303311680e-05,-2.214044758525936588e-03
3.543206036175360150e-03,-9.018205123019810109e-05,-2.214044814295069389e-03
3.543206001326875808e-03,-9.018205121736307182e-05,-2.214044870064200889e-03
3.543205966478391467e-03,-9.018205120452802901e-05,-2.214044925833331956e-03
3.543205931629905825e-03,-9.018205119169301330e-05,-2.214044981602462589e-03
3.543205896781419315e-03,-9.018205117885798403e-05,-2.214045037371592355e-03
3.543205861932931938e-03,-9.018205116602295477e-05,-2.214045093140721253e-03
3.543205827084442826e-03,-9.018205115318792551e-05,-2.214045148909850151e-03
3.543205792235954148e-03,-9.018205114035288269e-05,-2.214045204678979049e-03
3.543205757387463736e-03,-9.018205112751785343e-05,-2.214045260448106213e-03
3.543205722538972889e-03,-9.018205111468281061e-05,-2.214045316217234244e-03
3.543205687690481175e-03,-9.018205110184778135e-05,-2.214045371986360106e-03
3.543205652841988160e-03,-9.018205108901273853e-05,-2.214045427755485969e-03
3.543205617993495579e-03,-9.018205107617772282e-05,-2.214045483524611831e-03
3.543205583145000396e-03,-9.018205106334266645e-05,-2.214045539293736826e-03
3.543205548296505213e-03,-9.018205105050765074e-05,-2.214045595062860521e-03
3.543205513448009162e-03,-9.018205103767260792e-05,-2.214045650831984648e-03
3.543205478599511810e-03,-9.018205102483757866e-05,-2.214045706601107909e-03
3.543205443751013591e-03,-9.018205101200253585e-05,-2.214045762370230302e-03
3.543205408902515372e-03,-9.018205099916750658e-05,-2.214045818139352695e-03
3.543205374054015418e-03,-9.018205098633246377e-05,-2.214045873908474221e-03
3.543205339205515031e-03,-9.018205097349743450e-05,-2.214045929677595313e-03
3.543205304357013342e-03,-9.018205096066239169e-05,-2.214045985446715537e-03
3.543205269508511220e-03,-9.018205094782737598e-05,-2.214046041215835762e-03
3.543205234660008664e-03,-9.018205093499233316e-05,-2.214046096984955119e-03
3.543205199811503940e-03,-9.018205092215729034e-05,-2.214046152754073609e-03
3.543205164962999650e-03,-9.018205090932226108e-05,-2.214046208523192099e-03
3.543205130114493624e-03,-9.018205089648720471e-05,-2.214046264292309722e-03
3.543205095265986732e-03,-9.018205088365218900e-05,-2.214046320061426910e-03
3.543205060417479405e-03,-9.018205087081715974e-05,-2.214046375830543232e-03
3.543205025568970778e-03,-9.018205085798213047e-05,-2.214046431599659120e-03
3.543204990720461717e-03,-9.018205084514707411e-05,-2.214046487368775008e-03
3.543204955871950921e-03,-9.018205083231205840e-05,-2.214046543137889594e-03
3.543204921023440559e-03,-9.018205081947701558e-05,-2.214046598907004181e-03
3.543204886174928028e-03,-9.018205080664195921e-05,-2.214046654676117467e-03
3.543204851326415064e-03,-9.018205079380692995e-05,-2.214046710445231186e-03
3.543204816477902100e-03,-9.018205078097190068e-05,-2.214046766214343605e-03
3.543204781629386967e-03,-9.018205076813685787e-05,-2.214046821983455589e-03
3.543204746780872268e-03,-9.018205075530181505e-05,-2.214046877752567574e-03
3.543204711932355401e-03,-9.018205074246677224e-05,-2.214046933521678258e-03
3.543204677083838534e-03,-9.018205072963174297e-05,-2.214046989290788508e-03
3.543204642235320799e-03,-9.018205071679670016e-05,-2.214047045059898758e-03
3.543204607386801763e-03,-9.018205070396165734e-05,-2.214047100829008140e-03
3.543204572538282294e-03,-9.018205069112662808e-05,-2.214047156598116656e-03
3.543204537689761523e-03,-9.018205067829158526e-05,-2.214047212367225171e-03
3.543204502841240319e-03,-9.018205066545654245e-05,-2.214047268136332385e-03
3.543204467992716947e-03,-9.018205065262151318e-05,-2.214047323905439599e-03
3.543204433144194008e-03,-9.018205063978647037e-05,-2.214047379674546380e-03
3.543204398295670202e-03,-9.018205062695144110e-05,-2.214047435443652727e-03
3.543204363447145528e-03,-9.018205061411638474e-05,-2.214047491212757773e-03
3.543204328598619120e-03,-9.018205060128136902e-05,-2.214047546981862818e-03
3.543204293750092278e-03,-9.018205058844629910e-05,-2.214047602750966997e-03
3.543204258901565436e-03,-9.018205057561126984e-05,-2.214047658520070742e-03
3.543204224053035992e-03,-9.018205056277622702e-05,-2.214047714289174053e-03
3.543204189204507415e-03,-9.018205054994117066e-05,-2.214047770058276497e-03
3.543204154355977537e-03,-9.018205053710612784e-05,-2.214047825827378507e-03
3.543204119507445925e-03,-9.018205052427109858e-05,-2.214047881596480517e-03
3.543204084658914312e-03,-9.018205051143606931e-05,-2.214047937365581226e-03
3.543204049810380965e-03,-9.018205049860101294e-05,-2.214047993134681501e-03
3.543204014961847618e-03,-9.018205048576597013e-05,-2.214048048903781343e-03
3.543203980113312970e-03,-9.018205047293092731e-05,-2.214048104672880317e-03
3.543203945264777454e-03,-9.018205046009588450e-05,-2.214048160441979725e-03
3.543203910416241071e-03,-9.018205044726084168e-05,-2.214048216211077832e-03
3.543203875567704254e-03,-9.018205043442581242e-05,-2.214048271980175505e-03
3.543203840719165703e-03,-9.018205042159075605e-05,-2.214048327749272311e-03
3.543203805870626718e-03,-9.018205040875569968e-05,-2.214048383518369117e-03
3.543203771022086866e-03,-9.018205039592067042e-05,-2.214048439287465055e-03
3.543203736173546579e-03,-9.018205038308562760e-05,-2.214048495056560560e-03
3.543203701325004992e-03,-9.018205037025058479e-05,-2.214048550825655198e-03
3.543203666476462104e-03,-9.018205035741554197e-05,-2.214048606594749835e-03
3.543203631627918349e-03,-9.018205034458049915e-05,-2.214048662363843605e-03
3.543203596779375027e-03,-9.018205033174545634e-05,-2.214048718132936508e-03
3.543203561930829536e-03,-9.018205031891039997e-05,-2.214048773902029411e-03
3.543203527082283612e-03,-9.018205030607535715e-05,-2.214048829671121880e-03
3.543203492233736387e-03,-9.018205029324032789e-05,-2.214048885440213048e-03
3.543203457385189596e-03,-9.018205028040528507e-05,-2.214048941209303782e-03
3.543203422536640636e-03,-9.018205026757021515e-05,-2.214048996978394516e-03
3.543203387688090376e-03,-9.018205025473518589e-05,-2.214049052747483950e-03
3.543203352839540982e-03,-9.018205024190012952e-05,-2.214049108516573383e-03
3.543203317990988987e-03,-9.018205022906507315e-05,-2.214049164285661949e-03
3.543203283142437425e-03,-9.018205021623004389e-05,-2.214049220054750515e-03
3.543203248293884562e-03,-9.018205020339500107e-05,-2.214049275823837780e-03
3.543203213445330398e-03,-9.018205019055994471e-05,-2.214049331592925045e-03
3.543203178596776234e-03,-9.018205017772491544e-05,-2.214049387362011442e-03
3.543203143748220769e-03,-9.018205016488985907e-05,-2.214049443131097406e-03
3.543203108899664004e-03,-9.018205015205481626e-05,-2.214049498900182503e-03
3.543203074051106804e-03,-9.018205013921975989e-05,-2.214049554669267599e-03
3.543203039202548737e-03,-9.018205012638471707e-05,-2.214049610438351828e-03
3.543203004353990236e-03,-9.018205011354966071e-05,-2.214049666207436057e-03
3.543202969505429567e-03,-9.018205010071463144e-05,-2.214049721976518552e-03
3.543202934656869332e-03,-9.018205008787956152e-05,-2.214049777745601480e-03
3.543202899808307361e-03,-9.018205007504451871e-05,-2.214049833514683541e-03
3.543202864959744524e-03,-9.018205006220948944e-05,-2.214049889283765168e-03
3.543202830111181253e-03,-9.018205004937440597e-05,-2.214049945052845927e-03
3.543202795262617114e-03,-9.018205003653936315e-05,-2.214050000821926253e-03
3.543202760414052108e-03,-9.018205002370432034e-05,-2.214050056591006146e-03
3.543202725565486235e-03,-9.018205001086927752e-05,-2.214050112360085604e-03
3.543202690716918627e-03,-9.018204999803420760e-05,-2.214050168129164196e-03
3.543202655868351453e-03,-9.018204998519917834e-05,-2.214050223898241920e-03
3.543202621019782544e-03,-9.018204997236412197e-05,-2.214050279667319644e-03
3.543202586171213635e-03,-9.018204995952909270e-05,-2.214050335436397367e-03
3.543202551322642991e-03,-9.018204994669402278e-05,-2.214050391205473790e-03
3.543202516474071046e-03,-9.018204993385896642e-05,-2.214050446974549346e-03
3.543202481625499969e-03,-9.018204992102391005e-05,-2.214050502743624901e-03
3.543202446776926289e-03,-9.018204990818886723e-05,-2.214050558512699590e-03
3.543202411928352610e-03,-9.018204989535381086e-05,-2.214050614281773844e-03
3.543202377079777629e-03,-9.018204988251875449e-05,-2.214050670050847665e-03
3.543202342231202649e-03,-9.018204986968371168e-05,-2.214050725819921052e-03
3.543202307382625933e-03,-9.018204985684866886e-05,-2.214050781588993572e-03
3.543202272534048351e-03,-9.018204984401361249e-05,-2.214050837358065658e-03
3.543202237685470334e-03,-9.018204983117856968e-05,-2.214050893127136876e-03
3.543202202836891017e-03,-9.018204981834349976e-05,-2.214050948896208095e-03
3.543202167988311266e-03,-9.018204980550845694e-05,-2.214051004665278446e-03
3.543202133139730214e-03,-9.018204979267340057e-05,-2.214051060434347930e-03
3.543202098291148728e-03,-9.018204977983834420e-05,-2.214051116203417414e-03
3.543202063442565941e-03,-9.018204976700330139e-05,-2.214051171972486465e-03
3.543202028593982287e-03,-9.018204975416824502e-05,-2.214051227741554648e-03
3.543201993745397765e-03,-9.018204974133320220e-05,-2.214051283510621963e-03
3.543201958896812376e-03,-9.018204972849813228e-05,-2.214051339279688845e-03
3.543201924048227421e-03,-9.018204971566307591e-05,-2.214051395048755727e-03
3.543201889199639864e-03,-9.018204970282803310e-05,-2.214051450817821308e-03
3.543201854351051439e-03,-9.018204968999297673e-05,-2.214051506586886455e-03
3.543201819502463015e-03,-9.018204967715793391e-05,-2.214051562355951169e-03
3.543201784653874156e-03,-9.018204966432286399e-05,-2.214051618125015448e-03
3.543201749805283563e-03,-9.018204965148782118e-05,-2.214051673894079728e-03
3.543201714956691235e-03,-9.018204963865273770e-05,-2.214051729663143141e-03
3.543201680108099775e-03,-9.018204962581769489e-05,-2.214051785432204818e-03
3.543201645259507013e-03,-9.018204961298263852e-05,-2.214051841201266930e-03
3.543201610410912517e-03,-9.018204960014759570e-05,-2.214051896970328608e-03
3.543201575562317587e-03,-9.018204958731252578e-05,-2.214051952739389852e-03
3.543201540713721790e-03,-9.018204957447746941e-05,-2.214052008508449795e-03
3.543201505865125559e-03,-9.018204956164241305e-05,-2.214052064277509738e-03
3.543201471016528027e-03,-9.018204954880737023e-05,-2.214052120046569247e-03
3.543201436167929628e-03,-9.018204953597230031e-05,-2.214052175815627889e-03
3.543201401319330361e-03,-9.018204952313727105e-05,-2.214052231584685664e-03
3.543201366470730227e-03,-9.018204951030218757e-05,-2.214052287353743872e-03
3.543201331622129659e-03,-9.018204949746713120e-05,-2.214052343122800345e-03
3.543201296773528224e-03,-9.018204948463208839e-05,-2.214052398891857253e-03
3.543201261924925054e-03,-9.018204947179701847e-05,-2.214052454660912859e-03
3.543201227076321017e-03,-9.018204945896196210e-05,-2.214052510429968031e-03
3.543201192227717414e-03,-9.018204944612691928e-05,-2.214052566199022770e-03
3.543201157379112076e-03,-9.018204943329184936e-05,-2.214052621968077075e-03
3.543201122530505870e-03,-9.018204942045677944e-05,-2.214052677737130947e-03
3.543201087681898797e-03,-9.018204940762173662e-05,-2.214052733506183517e-03
3.543201052833291290e-03,-9.018204939478668026e-05,-2.214052789275236088e-03
3.543201017984681615e-03,-9.018204938195161034e-05,-2.214052845044288658e-03
3.543200983136072374e-03,-9.018204936911655397e-05,-2.214052900813340361e-03
3.543200948287461832e-03,-9.018204935628149760e-05,-2.214052956582390763e-03
3.543200913438850855e-03,-9.018204934344642768e-05,-2.214053012351441599e-03
3.543200878590237711e-03,-9.018204933061138486e-05,-2.214053068120491567e-03
3.543200843741625434e-03,-9.018204931777631494e-05,-2.214053123889540235e-03
3.543200808893011422e-03,-9.018204930494124502e-05,-2.214053179658588902e-03
3.543200774044396543e-03,-9.018204929210620220e-05,-2.214053235427637135e-03
3.543200739195780363e-03,-9.018204927927114584e-05,-2.214053291196684502e-03
3.543200704347164182e-03,-9.018204926643607591e-05,-2.214053346965731434e-03
3.543200669498546267e-03,-9.018204925360100599e-05,-2.214053402734777933e-03
3.543200634649927485e-03,-9.018204924076594963e-05,-2.214053458503824432e-03
3.543200599801308269e-03,-9.018204922793087970e-05,-2.214053514272869630e-03
3.543200564952688186e-03,-9.018204921509582334e-05,-2.214053570041913960e-03
3.543200530104067235e-03,-9.018204920226075341e-05,-2.214053625810958725e-03
3.543200495255445417e-03,-9.018204918942569705e-05,-2.214053681580002188e-03
3.543200460406823165e-03,-9.018204917659064068e-05,-2.214053737349045651e-03
3.543200425558198745e-03,-9.018204916375557076e-05,-2.214053793118087813e-03
3.543200390709574758e-03,-9.018204915092051439e-05,-2.214053848887129975e-03
3.543200355860949471e-03,-9.018204913808544447e-05,-2.214053904656170836e-03
3.543200321012322882e-03,-9.018204912525038810e-05,-2.214053960425212565e-03
3.543200286163695860e-03,-9.018204911241531818e-05,-2.214054016194252125e-03
3.543200251315067970e-03,-9.018204909958026181e-05,-2.214054071963292552e-03
3.543200216466439213e-03,-9.018204908674517834e-05,-2.214054127732331245e-03
3.543200181617808722e-03,-9.018204907391013552e-05,-2.214054183501369937e-03
3.543200146769178664e-03,-9.018204906107506560e-05,-2.214054239270408196e-03
3.543200111920547738e-03,-9.018204904824000923e-05,-2.214054295039446021e-03
3.543200077071915078e-03,-9.018204903540492576e-05,-2.214054350808482546e-03
3.543200042223281550e-03,-9.018204902256988294e-05,-2.214054406577519070e-03
3.543200007374647589e-03,-9.018204900973481302e-05,-2.214054462346554727e-03
3.543199972526012761e-03,-9.018204899689974310e-05,-2.214054518115590384e-03
3.543199937677377065e-03,-9.018204898406470028e-05,-2.214054573884624739e-03
3.543199902828739634e-03,-9.018204897122961681e-05,-2.214054629653659529e-03
3.543199867980102637e-03,-9.018204895839454689e-05,-2.214054685422693017e-03
3.543199833131464339e-03,-9.018204894555949052e-05,-2.214054741191726072e-03
3.543199798282824740e-03,-9.018204893272443415e-05,-2.214054796960758693e-03
3.543199763434184708e-03,-9.018204891988936423e-05,-2.214054852729790447e-03
3.543199728585543374e-03,-9.018204890705428076e-05,-2.214054908498822201e-03
3.543199693736901607e-03,-9.018204889421922439e-05,-2.214054964267852654e-03
3.543199658888258972e-03,-9.018204888138416802e-05,-2.214055020036883540e-03
3.543199624039615470e-03,-9.018204886854909810e-05,-2.214055075805912692e-03
3.543199589190970233e-03,-9.018204885571400107e-05,-2.214055131574942277e-03
3.543199554342324562e-03,-9.018204884287895826e-05,-2.214055187343970561e-03
3.543199519493678892e-03,-9.018204883004390189e-05,-2.214055243112998846e-03
3.543199484645031486e-03,-9.018204881720883197e-05,-2.214055298882026263e-03
3.543199449796383214e-03,-9.018204880437374850e-05,-2.214055354651053679e-03
3.543199414947734507e-03,-9.018204879153869213e-05,-2.214055410420079362e-03
3.543199380099084934e-03,-9.018204877870363576e-05,-2.214055466189105478e-03
3.543199345250433625e-03,-9.018204876586855229e-05,-2.214055521958131160e-03
3.543199310401782317e-03,-9.018204875303348236e-05,-2.214055577727155975e-03
3.543199275553130575e-03,-9.018204874019841244e-05,-2.214055633496179922e-03
3.543199240704477098e-03,-9.018204872736334252e-05,-2.214055689265203436e-03
3.543199205855822754e-03,-9.018204871452828615e-05,-2.214055745034226516e-03
3.543199171007167542e-03,-9.018204870169321623e-05,-2.214055800803249163e-03
3.543199136158511463e-03,-9.018204868885813276e-05,-2.214055856572270942e-03
3.543199101309854951e-03,-9.018204867602304929e-05,-2.214055912341292287e-03
3.543199066461197571e-03,-9.018204866318799292e-05,-2.214055968110313199e-03
3.543199031612538456e-03,-9.018204865035292300e-05,-2.214056023879333677e-03
3.543198996763879342e-03,-9.018204863751785308e-05,-2.214056079648353721e-03
3.543198961915218926e-03,-9.018204862468278315e-05,-2.214056135417372465e-03
3.543198927066557643e-03,-9.018204861184771323e-05,-2.214056191186390774e-03
3.543198892217895492e-03,-9.018204859901264331e-05,-2.214056246955409084e-03
3.543198857369233342e-03,-9.018204858617758694e-05,-2.214056302724426526e-03
3.543198822520569023e-03,-9.018204857334250347e-05,-2.214056358493443535e-03
3.543198787671904704e-03,-9.018204856050743355e-05,-2.214056414262460110e-03
3.543198752823238651e-03,-9.018204854767236363e-05,-2.214056470031476251e-03
3.543198717974572597e-03,-9.018204853483728016e-05,-2.214056525800491525e-03
3.543198683125905243e-03,-9.018204852200222379e-05,-2.214056581569505931e-03
3.543198648277237021e-03,-9.018204850916714031e-05,-2.214056637338520338e-03
3.543198613428568799e-03,-9.018204849633208395e-05,-2.214056693107533443e-03
3.543198578579897975e-03,-9.018204848349701402e-05,-2.214056748876546982e-03
3.543198543731227151e-03,-9.018204847066191700e-05,-2.214056804645559654e-03
3.543198508882555893e-03,-9.018204845782686063e-05,-2.214056860414571892e-03
3.543198474033883768e-03,-9.018204844499179071e-05,-2.214056916183582829e-03
3.543198439185209908e-03,-9.018204843215669368e-05,-2.214056971952593766e-03
3.543198404336535615e-03,-9.018204841932162376e-05,-2.214057027721603836e-03
3.543198369487860887e-03,-9.018204840648656739e-05,-2.214057083490613472e-03
3.543198334639183992e-03,-9.018204839365149747e-05,-2.214057139259622674e-03
3.543198299790507964e-03,-9.018204838081640045e-05,-2.214057195028631009e-03
3.543198264941830634e-03,-9.018204836798133053e-05,-2.214057250797639344e-03
3.543198230093151137e-03,-9.018204835514627416e-05,-2.214057306566646812e-03
3.543198195244472073e-03,-9.018204834231119068e-05,-2.214057362335654280e-03
3.543198160395792141e-03,-9.018204832947610721e-05,-2.214057418104660446e-03
3.543198125547110909e-03,-9.018204831664102374e-05,-2.214057473873666179e-03
3.543198090698428376e-03,-9.018204830380594026e-05,-2.214057529642671045e-03
3.543198055849745409e-03,-9.018204829097089745e-05,-2.214057585411675910e-03
3.543198021001061574e-03,-9.018204827813581397e-05,-2.214057641180680342e-03
3.543197986152376872e-03,-9.018204826530073050e-05,-2.214057696949683473e-03
3.543197951303690869e-03,-9.018204825246566058e-05,-2.214057752718686604e-03
3.543197916455004433e-03,-9.018204823963056355e-05,-2.214057808487689301e-03
3.543197881606317129e-03,-9.018204822679550718e-05,-2.214057864256691564e-03
3.543197846757629391e-03,-9.018204821396043726e-05,-2.214057920025692527e-03
3.543197811908939919e-03,-9.018204820112535379e-05,-2.214057975794693923e-03
3.543197777060250013e-03,-9.018204818829025676e-05,-2.214058031563694018e-03
3.543197742211559240e-03,-9.018204817545518684e-05,-2.214058087332693246e-03
3.543197707362867599e-03,-9.018204816262011692e-05,-2.214058143101692907e-03
3.543197672514175091e-03,-9.018204814978503345e-05,-2.214058198870691267e-03
3.543197637665482149e-03,-9.018204813694994998e-05,-2.214058254639689194e-03
3.543197602816787473e-03,-9.018204812411486650e-05,-2.214058310408687121e-03
3.543197567968091929e-03,-9.018204811127979658e-05,-2.214058366177683746e-03
3.543197533119395518e-03,-9.018204809844471311e-05,-2.214058421946679938e-03
3.543197498270698673e-03,-9.018204808560964319e-05,-2.214058477715675696e-03
3.543197463422001394e-03,-9.018204807277458682e-05,-2.214058533484671021e-03
3.543197428573301947e-03,-9.018204805993950334e-05,-2.214058589253665912e-03
3.543197393724602934e-03,-9.018204804710440632e-05,-2.214058645022659502e-03
3.543197358875902619e-03,-9.018204803426933640e-05,-2.214058700791653525e-03
3.543197324027201004e-03,-9.018204802143426648e-05,-2.214058756560646681e-03
3.543197289178499389e-03,-9.018204800859918300e-05,-2.214058812329639404e-03
3.543197254329796039e-03,-9.018204799576409953e-05,-2.214058868098630825e-03
3.543197219481091821e-03,-9.018204798292900250e-05,-2.214058923867622247e-03
3.543197184632387170e-03,-9.018204797009393258e-05,-2.214058979636613234e-03
3.543197149783681651e-03,-9.018204795725884911e-05,-2.214059035405602921e-03
3.543197114934975266e-03,-9.018204794442376564e-05,-2.214059091174593041e-03
3.543197080086268012e-03,-9.018204793158869572e-05,-2.214059146943582294e-03
3.543197045237559458e-03,-9.018204791875361224e-05,-2.214059202712570680e-03
3.543197010388850904e-03,-9.018204790591852877e-05,-2.214059258481558632e-03
3.543196975540140615e-03,-9.018204789308344529e-05,-2.214059314250546150e-03
3.543196940691429458e-03,-9.018204788024836182e-05,-2.214059370019533235e-03
3.543196905842717868e-03,-9.018204786741329190e-05,-2.214059425788519452e-03
3.543196870994005411e-03,-9.018204785457820843e-05,-2.214059481557505236e-03
3.543196836145291219e-03,-9.018204784174312495e-05,-2.214059537326490586e-03
3.543196801296577027e-03,-9.018204782890805503e-05,-2.214059593095475068e-03
3.543196766447861967e-03,-9.018204781607294445e-05,-2.214059648864459551e-03
3.543196731599144739e-03,-9.018204780323786098e-05,-2.214059704633443166e-03
3.543196696750428379e-03,-9.018204779040279106e-05,-2.214059760402425914e-03
3.543196661901710284e-03,-9.018204777756770759e-05,-2.214059816171408662e-03
3.543196627052991755e-03,-9.018204776473263766e-05,-2.214059871940390108e-03
3.543196592204271925e-03,-9.018204775189752709e-05,-2.214059927709371555e-03
3.543196557355551661e-03,-9.018204773906245717e-05,-2.214059983478352568e-03
3.543196522506830530e-03,-9.018204772622737369e-05,-2.214060039247333148e-03
3.543196487658108098e-03,-9.018204771339227667e-05,-2.214060095016312426e-03
3.543196452809385232e-03,-9.018204770055720674e-05,-2.214060150785291271e-03
3.543196417960661065e-03,-9.018204768772212327e-05,-2.214060206554270115e-03
3.543196383111936031e-03,-9.018204767488705335e-05,-2.214060262323248093e-03
3.543196348263210563e-03,-9.018204766205192922e-05,-2.214060318092225203e-03
3.543196313414483795e-03,-9.018204764921685930e-05,-2.214060373861202313e-03
3.543196278565756592e-03,-9.018204763638177583e-05,-2.214060429630178555e-03
3.543196243717027655e-03,-9.018204762354670590e-05,-2.214060485399154364e-03
3.543196208868298717e-03,-9.018204761071159533e-05,-2.214060541168129739e-03
3.543196174019568479e-03,-9.018204759787651185e-05,-2.214060596937104247e-03
3.543196139170837373e-03,-9.018204758504144193e-05,-2.214060652706078755e-03
3.543196104322105834e-03,-9.018204757220635846e-05,-2.214060708475052396e-03
3.543196069473373427e-03,-9.018204755937126143e-05,-2.214060764244025169e-03
3.543196034624638852e-03,-9.018204754653616441e-05,-2.214060820012997508e-03
3.543195999775905578e-03,-9.018204753370109448e-05,-2.214060875781969414e-03
3.543195964927169702e-03,-9.018204752086599746e-05,-2.214060931550940886e-03
3.543195930078433826e-03,-9.018204750803091399e-05,-2.214060987319911491e-03
3.543195895229696215e-03,-9.018204749519583051e-05,-2.214061043088881662e-03
3.543195860380958170e-03,-9.018204748236073349e-05,-2.214061098857851399e-03
3.543195825532219258e-03,-9.018204746952565001e-05,-2.214061154626820269e-03
3.543195790683480347e-03,-9.018204745669055299e-05,-2.214061210395789139e-03
3.543195755834738832e-03,-9.018204744385546951e-05,-2.214061266164757142e-03
3.543195720985997752e-03,-9.018204743102037249e-05,-2.214061321933724277e-03
3.543195686137255371e-03,-9.018204741818530257e-05,-2.214061377702691846e-03
3.543195651288512122e-03,-9.018204740535020554e-05,-2.214061433471657681e-03
3.543195616439768440e-03,-9.018204739251512207e-05,-2.214061489240623515e-03
3.543195581591023022e-03,-9.018204737968002504e-05,-2.214061545009588915e-03
3.543195546742277172e-03,-9.018204736684492801e-05,-2.214061600778553449e-03
3.543195511893530453e-03,-9.018204735400984454e-05,-2.214061656547517548e-03
3.543195477044782868e-03,-9.018204734117474751e-05,-2.214061712316480780e-03
3.543195442196034849e-03,-9.018204732833966404e-05,-2.214061768085444012e-03
3.543195407347285528e-03,-9.018204731550455346e-05,-2.214061823854406377e-03
3.543195372498534907e-03,-9.018204730266949709e-05,-2.214061879623368308e-03
3.543195337649784286e-03,-9.018204728983441362e-05,-2.214061935392329372e-03
3.543195302801032363e-03,-9.018204727699930304e-05,-2.214061991161290436e-03
3.543195267952279140e-03,-9.018204726416421957e-05,-2.214062046930250632e-03
3.543195233103525483e-03,-9.018204725132912254e-05,-2.214062102699210395e-03
3.543195198254770958e-03,-9.018204723849402552e-05,-2.214062158468169724e-03
3.543195163406016000e-03,-9.018204722565892849e-05,-2.214062214237127752e-03
3.543195128557258874e-03,-9.018204721282383146e-05,-2.214062270006085780e-03
3.543195093708502181e-03,-9.018204719998876154e-05,-2.214062325775043374e-03
3.543195058859744621e-03,-9.018204718715366452e-05,-2.214062381543999668e-03
3.543195024010985326e-03,-9.018204717431856749e-05,-2.214062437312955961e-03
3.543194989162225597e-03,-9.018204716148347047e-05,-2.214062493081912254e-03
3.543194954313465001e-03,-9.018204714864838699e-05,-2.214062548850867680e-03
3.543194919464703538e-03,-9.018204713581328997e-05,-2.214062604619822239e-03
3.543194884615941207e-03,-9.018204712297819294e-05,-2.214062660388775496e-03
3.543194849767178009e-03,-9.018204711014309591e-05,-2.214062716157729621e-03
3.543194814918413510e-03,-9.018204709730801244e-05,-2.214062771926682445e-03
3.543194780069649011e-03,-9.018204708447292897e-05,-2.214062827695635269e-03
3.543194745220882777e-03,-9.018204707163781839e-05,-2.214062883464586358e-03
3.543194710372115676e-03,-9.018204705880273492e-05,-2.214062939233538314e-03
3.543194675523348141e-03,-9.018204704596763789e-05,-2.214062995002488970e-03
3.543194640674579739e-03,-9.018204703313254086e-05,-2.214063050771439192e-03
3.543194605825810469e-03,-9.018204702029744384e-05,-2.214063106540388980e-03
3.543194570977040332e-03,-9.018204700746236036e-05,-2.214063162309337467e-03
3.543194536128268894e-03,-9.018204699462724979e-05,-2.214063218078286821e-03
3.543194501279497456e-03,-9.018204698179216631e-05,-2.214063273847234007e-03
3.543194466430724283e-03,-9.018204696895705573e-05,-2.214063329616181627e-03
3.543194431581950243e-03,-9.018204695612197226e-05,-2.214063385385128379e-03
3.543194396733175336e-03,-9.018204694328687523e-05,-2.214063441154074698e-03
3.543194361884399995e-03,-9.018204693045175110e-05,-2.214063496923020149e-03
3.543194327035623786e-03,-9.018204691761668118e-05,-2.214063552691965600e-03
3.543194292186846710e-03,-9.018204690478158416e-05,-2.214063608460910618e-03
3.543194257338068334e-03,-9.018204689194650068e-05,-2.214063664229854768e-03
3.543194222489289523e-03,-9.018204687911137655e-05,-2.214063719998798051e-03
3.543194187640509411e-03,-9.018204686627629308e-05,-2.214063775767740466e-03
3.543194152791728866e-03,-9.018204685344119605e-05,-2.214063831536683315e-03
3.543194117942947020e-03,-9.018204684060611258e-05,-2.214063887305624864e-03
3.543194083094164740e-03,-9.018204682777098845e-05,-2.214063943074566412e-03
3.543194048245381592e-03,-9.018204681493590497e-05,-2.214063998843507526e-03
3.543194013396597578e-03,-9.018204680210078084e-05,-2.214064054612447773e-03
3.543193978547811828e-03,-9.018204678926572447e-05,-2.214064110381386719e-03
3.543193943699026079e-03,-9.018204677643060034e-05,-2.214064166150325665e-03
3.543193908850239895e-03,-9.018204676359550332e-05,-2.214064221919264178e-03
3.543193874001451978e-03,-9.018204675076040629e-05,-2.214064277688202690e-03
3.543193839152662759e-03,-9.018204673792532282e-05,-2.214064333457139901e-03
3.543193804303873106e-03,-9.018204672509021224e-05,-2.214064389226076245e-03
3.543193769455083020e-03,-9.018204671225511521e-05,-2.214064444995013023e-03
3.543193734606292066e-03,-9.018204669942001819e-05,-2.214064500763948500e-03
3.543193699757500245e-03,-9.018204668658492116e-05,-2.214064556532883542e-03
3.543193664908707123e-03,-9.018204667374981058e-05,-2.214064612301818152e-03
3.543193630059913567e-03,-9.018204666091471356e-05,-2.214064668070752327e-03
3.543193595211118711e-03,-9.018204664807960298e-05,-2.214064723839685635e-03
3.543193560362322986e-03,-9.018204663524451950e-05,-2.214064779608618510e-03
3.543193525513526829e-03,-9.018204662240939537e-05,-2.214064835377550951e-03
3.543193490664729370e-03,-9.018204660957431190e-05,-2.214064891146482958e-03
3.543193455815931477e-03,-9.018204659673920132e-05,-2.214064946915414098e-03
3.543193420967131850e-03,-9.018204658390413140e-05,-2.214065002684345237e-03
3.543193386118331789e-03,-9.018204657106900727e-05,-2.214065058453275076e-03
3.543193351269530427e-03,-9.018204655823391024e-05,-2.214065114222205349e-03
3.543193316420729499e-03,-9.018204654539879966e-05,-2.214065169991134320e-03
3.543193281571926836e-03,-9.018204653256368909e-05,-2.214065225760061990e-03
3.543193246723123305e-03,-9.018204651972860561e-05,-2.214065281528990094e-03
3.543193211874319341e-03,-9.018204650689349503e-05,-2.214065337297917331e-03
3.543193177025514510e-03,-9.018204649405839801e-05,-2.214065393066844568e-03
3.543193142176707944e-03,-9.018204648122328743e-05,-2.214065448835770937e-03
3.543193107327901378e-03,-9.018204646838819040e-05,-2.214065504604696005e-03
3.543193072479093077e-03,-9.018204645555307983e-05,-2.214065560373621507e-03
3.543193037630284342e-03,-9.018204644271798280e-05,-2.214065616142546142e-03
3.543193002781474740e-03,-9.018204642988287222e-05,-2.214065671911469909e-03
3.543192967932665138e-03,-9.018204641704776164e-05,-2.214065727680393676e-03
3.543192933083853802e-03,-9.018204640421266462e-05,-2.214065783449316576e-03
3.543192898235041164e-03,-9.018204639137755404e-05,-2.214065839218238609e-03
3.543192863386228526e-03,-9.018204637854245701e-05,-2.214065894987160207e-03
3.543192828537414154e-03,-9.018204636570735999e-05,-2.214065950756081806e-03
3.543192793688598914e-03,-9.018204635287223585e-05,-2.214066006525002971e-03
3.543192758839784108e-03,-9.018204634003713883e-05,-2.214066062293922402e-03
3.543192723990967567e-03,-9.018204632720201470e-05,-2.214066118062842266e-03
3.543192689142150159e-03,-9.018204631436693122e-05,-2.214066173831761263e-03
3.543192654293331884e-03,-9.018204630153182065e-05,-2.214066229600680259e-03
3.543192619444513174e-03,-9.018204628869672362e-05,-2.214066285369597521e-03
3.543192584595692297e-03,-9.018204627586162659e-05,-2.214066341138515651e-03
3.543192549746871853e-03,-9.018204626302651601e-05,-2.214066396907431612e-03
3.543192514898050108e-03,-9.018204625019140544e-05,-2.214066452676348440e-03
3.543192480049227062e-03,-9.018204623735629486e-05,-2.214066508445263967e-03
3.543192445200404449e-03,-9.018204622452118428e-05,-2.214066564214178627e-03
3.543192410351579235e-03,-9.018204621168608725e-05,-2.214066619983093721e-03
3.543192375502754021e-03,-9.018204619885097667e-05,-2.214066675752007513e-03
3.543192340653927939e-03,-9.018204618601586610e-05,-2.214066731520920872e-03
3.543192305805101423e-03,-9.018204617318075552e-05,-2.214066787289833364e-03
3.543192270956273173e-03,-9.018204616034564494e-05,-2.214066843058746722e-03
3.543192236107444923e-03,-9.018204614751054791e-05,-2.214066898827657913e-03
3.543192201258614938e-03,-9.018204613467542378e-05,-2.214066954596569103e-03
3.543192166409784519e-03,-9.018204612184031320e-05,-2.214067010365479427e-03
3.543192131560953233e-03,-9.018204610900521618e-05,-2.214067066134389750e-03
3.543192096712121080e-03,-9.018204609617010560e-05,-2.214067121903300073e-03
3.543192061863288059e-03,-9.018204608333500857e-05,-2.214067177672208661e-03
3.543192027014453738e-03,-9.018204607049989799e-05,-2.214067233441117249e-03
3.543191992165618982e-03,-9.018204605766477386e-05,-2.214067289210025404e-03
3.543191957316782926e-03,-9.018204604482967684e-05,-2.214067344978932692e-03
3.543191922467946436e-03,-9.018204603199456626e-05,-2.214067400747839545e-03
3.543191887619109512e-03,-9.018204601915945568e-05,-2.214067456516745531e-03
3.543191852770271287e-03,-9.018204600632434510e-05,-2.214067512285650650e-03
3.543191817921431761e-03,-9.018204599348922097e-05,-2.214067568054556203e-03
3.543191783072592235e-03,-9.018204598065412394e-05,-2.214067623823460888e-03
3.543191748223750541e-03,-9.018204596781901337e-05,-2.214067679592364706e-03
3.543191713374908413e-03,-9.018204595498390279e-05,-2.214067735361268090e-03
3.543191678526066285e-03,-9.018204594214877866e-05,-2.214067791130171041e-03
3.543191643677222422e-03,-9.018204592931368163e-05,-2.214067846899073558e-03
3.543191608828377692e-03,-9.018204591647855750e-05,-2.214067902667975207e-03
3.543191573979533396e-03,-9.018204590364344692e-05,-2.214067958436876423e-03
3.543191539130686497e-03,-9.018204589080833634e-05,-2.214068014205776772e-03
3.543191504281839599e-03,-9.018204587797322576e-05,-2.214068069974676686e-03
3.543191469432990966e-03,-9.018204586513811519e-05,-2.214068125743576601e-03
3.543191434584143200e-03,-9.018204585230300461e-05,-2.214068181512475648e-03
3.543191399735293266e-03,-9.018204583946789403e-05,-2.214068237281374262e-03
3.543191364886442464e-03,-9.018204582663278345e-05,-2.214068293050272009e-03
3.543191330037590795e-03,-9.018204581379767287e-05,-2.214068348819169321e-03
3.543191295188738692e-03,-9.018204580096254874e-05,-2.214068404588066200e-03
3.543191260339885289e-03,-9.018204578812743816e-05,-2.214068460356962212e-03
3.543191225491031451e-03,-9.018204577529232758e-05,-2.214068516125858224e-03
3.543191190642176313e-03,-9.018204576245720345e-05,-2.214068571894752934e-03
3.543191155793320741e-03,-9.018204574962210643e-05,-2.214068627663647645e-03
3.543191120944464735e-03,-9.018204573678698229e-05,-2.214068683432541488e-03
3.543191086095606561e-03,-9.018204572395187172e-05,-2.214068739201434897e-03
3.543191051246748387e-03,-9.018204571111674759e-05,-2.214068794970327440e-03
3.543191016397888912e-03,-9.018204569828165056e-05,-2.214068850739219982e-03
3.543190981549029003e-03,-9.018204568544651288e-05,-2.214068906508111657e-03
3.543190946700167793e-03,-9.018204567261141585e-05,-2.214068962277002898e-03
3.543190911851306149e-03,-9.018204565977629172e-05,-2.214069018045893272e-03
3.543190877002443204e-03,-9.018204564694118114e-05,-2.214069073814784079e-03
3.543190842153578959e-03,-9.018204563410605701e-05,-2.214069129583673586e-03
3.543190807304715147e-03,-9.018204562127095998e-05,-2.214069185352562225e-03
3.543190772455849600e-03,-9.018204560843582230e-05,-2.214069241121450430e-03
3.543190737606983186e-03,-9.018204559560071172e-05,-2.214069296890338635e-03
3.543190702758116338e-03,-9.018204558276560114e-05,-2.214069352659225973e-03
3.543190667909248189e-03,-9.018204556993047701e-05,-2.214069408428112444e-03
3.543190633060378739e-03,-9.018204555709536643e-05,-2.214069464196998915e-03
3.543190598211509723e-03,-9.018204554426025585e-05,-2.214069519965884952e-03
3.543190563362638539e-03,-9.018204553142513172e-05,-2.214069575734769688e-03
3.543190528513767788e-03,-9.018204551859000759e-05,-2.214069631503654424e-03
3.543190493664894868e-03,-9.018204550575489701e-05,-2.214069687272537858e-03
3.543190458816021949e-03,-9.018204549291978644e-05,-2.214069743041421727e-03
3.543190423967147729e-03,-9.018204548008466230e-05,-2.214069798810304728e-03
3.543190389118272641e-03,-9.018204546724952462e-05,-2.214069854579186862e-03
3.543190354269397119e-03,-9.018204545441441404e-05,-2.214069910348068562e-03
3.543190319420519863e-03,-9.018204544157930346e-05,-2.214069966116949395e-03
3.543190284571642173e-03,-9.018204542874417933e-05,-2.214070021885830228e-03
3.543190249722764050e-03,-9.018204541590905520e-05,-2.214070077654710193e-03
3.543190214873884625e-03,-9.018204540307394462e-05,-2.214070133423589725e-03
3.543190180025004334e-03,-9.018204539023882049e-05,-2.214070189192468823e-03
3.543190145176123174e-03,-9.018204537740370991e-05,-2.214070244961347488e-03
3.543190110327241581e-03,-9.018204536456858578e-05,-2.214070300730224851e-03
3.543190075478358687e-03,-9.018204535173346165e-05,-2.214070356499102648e-03
3.543190040629474492e-03,-9.018204533889835107e-05,-2.214070412267979144e-03
3.543190005780589864e-03,-9.018204532606322694e-05,-2.214070468036855206e-03
3.543189970931704801e-03,-9.018204531322811636e-05,-2.214070523805730835e-03
3.543189936082818438e-03,-9.018204530039297868e-05,-2.214070579574606030e-03
3.543189901233931207e-03,-9.018204528755785455e-05,-2.214070635343480357e-03
3.543189866385043109e-03,-9.018204527472273042e-05,-2.214070691112354685e-03
3.543189831536153276e-03,-9.018204526188761984e-05,-2.214070746881228145e-03
3.543189796687263877e-03,-9.018204524905248216e-05,-2.214070802650100304e-03
3.543189761838373177e-03,-9.018204523621737158e-05,-2.214070858418972897e-03
3.543189726989481609e-03,-9.018204522338224745e-05,-2.214070914187844189e-03
3.543189692140589608e-03,-9.018204521054713687e-05,-2.214070969956715915e-03
3.543189657291695872e-03,-9.018204519771201274e-05,-2.214071025725586339e-03
3.543189622442801702e-03,-9.018204518487688860e-05,-2.214071081494456330e-03
3.543189587593906665e-03,-9.018204517204177803e-05,-2.214071137263325887e-03
3.543189552745010761e-03,-9.018204515920665390e-05,-2.214071193032194577e-03
3.543189517896113555e-03,-9.018204514637151621e-05,-2.214071248801063267e-03
3.543189483047216350e-03,-9.018204513353639208e-05,-2.214071304569931089e-03
3.543189448198317843e-03,-9.018204512070126795e-05,-2.214071360338798044e-03
3.543189413349418469e-03,-9.018204510786614382e-05,-2.214071416107664999e-03
3.543189378500517794e-03,-9.018204509503101969e-05,-2.214071471876531520e-03
3.543189343651616686e-03,-9.018204508219588200e-05,-2.214071527645396741e-03
3.543189308802714710e-03,-9.018204506936077143e-05,-2.214071583414261527e-03
3.543189273953811867e-03,-9.018204505652564729e-05,-2.214071639183126314e-03
3.543189239104908156e-03,-9.018204504369052316e-05,-2.214071694951990233e-03
3.543189204256003144e-03,-9.018204503085539903e-05,-2.214071750720853719e-03
3.543189169407098132e-03,-9.018204501802028845e-05,-2.214071806489716337e-03
3.543189134558191386e-03,-9.018204500518515077e-05,-2.214071862258578521e-03
3.543189099709284640e-03,-9.018204499235001309e-05,-2.214071918027440272e-03
3.543189064860375725e-03,-9.018204497951488896e-05,-2.214071973796301589e-03
3.543189030011467244e-03,-9.018204496667976482e-05,-2.214072029565162039e-03
3.543188995162556594e-03,-9.018204495384465425e-05,-2.214072085334022055e-03
3.543188960313646378e-03,-9.018204494100951656e-05,-2.214072141102882071e-03
3.543188925464734861e-03,-9.018204492817437888e-05,-2.214072196871740353e-03
3.543188890615822043e-03,-9.018204491533925475e-05,-2.214072252640599068e-03
3.543188855766909225e-03,-9.018204490250414417e-05,-2.214072308409456916e-03
3.543188820917994673e-03,-9.018204488966902004e-05,-2.214072364178314330e-03
3.543188786069078385e-03,-9.018204487683388235e-05,-2.214072419947170876e-03
3.543188751220163399e-03,-9.018204486399875822e-05,-2.214072475716026556e-03
3.543188716371246678e-03,-9.018204485116363409e-05,-2.214072531484882235e-03
3.543188681522328222e-03,-9.018204483832850996e-05,-2.214072587253737914e-03
3.543188646673409766e-03,-9.018204482549338583e-05,-2.214072643022591859e-03
3.543188611824490009e-03,-9.018204481265823459e-05,-2.214072698791446237e-03
3.543188576975570252e-03,-9.018204479982311046e-05,-2.214072754560299314e-03
3.543188542126648761e-03,-9.018204478698799988e-05,-2.214072810329152392e-03
3.543188507277726402e-03,-9.018204477415284865e-05,-2.214072866098004168e-03
3.543188472428803609e-03,-9.018204476131772452e-05,-2.214072921866855944e-03
3.543188437579879516e-03,-9.018204474848260039e-05,-2.214072977635707287e-03
3.543188402730954988e-03,-9.018204473564747625e-05,-2.214073033404557762e-03
3.543188367882030027e-03,-9.018204472281233857e-05,-2.214073089173407803e-03
3.543188333033102898e-03,-9.018204470997721444e-05,-2.214073144942257411e-03
3.543188298184175335e-03,-9.018204469714209031e-05,-2.214073200711106151e-03
3.543188263335246904e-03,-9.018204468430695263e-05,-2.214073256479954892e-03
3.543188228486317606e-03,-9.018204467147184205e-05,-2.214073312248802765e-03
3.543188193637387875e-03,-9.018204465863669081e-05,-2.214073368017649337e-03
3.543188158788456842e-03,-9.018204464580155313e-05,-2.214073423786496776e-03
3.543188123939525376e-03,-9.018204463296642900e-05,-2.214073479555342481e-03
3.543188089090593042e-03,-9.018204462013130487e-05,-2.214073535324188186e-03
3.543188054241659408e-03,-9.018204460729616718e-05,-2.214073591093033023e-03
3.543188019392725339e-03,-9.018204459446102950e-05,-2.214073646861877860e-03
3.543187984543789970e-03,-9.018204458162590537e-05,-2.214073702630721396e-03
3.543187949694853733e-03,-9.018204456879078124e-05,-2.214073758399564499e-03
3.543187914845916629e-03,-9.018204455595561645e-05,-2.214073814168407602e-03
3.543187879996979091e-03,-9.018204454312050587e-05,-2.214073869937249403e-03
3.543187845148040686e-03,-9.018204453028536819e-05,-2.214073925706091638e-03
3.543187810299100547e-03,-9.018204451745023050e-05,-2.214073981474932572e-03
3.543187775450160407e-03,-9.018204450461510637e-05,-2.214074037243773507e-03
3.543187740601218532e-03,-9.018204449177996869e-05,-2.214074093012613140e-03
3.543187705752277091e-03,-9.018204447894483100e-05,-2.214074148781452339e-03
3.543187670903333048e-03,-9.018204446610970687e-05,-2.214074204550291105e-03
3.543187636054389873e-03,-9.018204445327456919e-05,-2.214074260319129437e-03
3.543187601205444529e-03,-9.018204444043941795e-05,-2.214074316087967769e-03
3.543187566356498751e-03,-9.018204442760429382e-05,-2.214074371856804800e-03
3.543187531507552539e-03,-9.018204441476918324e-05,-2.214074427625641397e-03
3.543187496658605461e-03,-9.018204440193404556e-05,-2.214074483394477561e-03
3.543187461809657081e-03,-9.018204438909890788e-05,-2.214074539163313291e-03
3.543187426960707400e-03,-9.018204437626375664e-05,-2.214074594932147720e-03
3.543187392111757286e-03,-9.018204436342863251e-05,-2.214074650700983016e-03
3.543187357262806304e-03,-9.018204435059350838e-05,-2.214074706469816578e-03
3.543187322413854888e-03,-9.018204433775834359e-05,-2.214074762238650140e-03
3.543187287564902171e-03,-9.018204432492321946e-05,-2.214074818007483268e-03
3.543187252715949021e-03,-9.018204431208808177e-05,-2.214074873776315094e-03
3.543187217866994136e-03,-9.018204429925295764e-05,-2.214074929545146054e-03
3.543187183018038384e-03,-9.018204428641780641e-05,-2.214074985313977881e-03
3.543187148169083065e-03,-9.018204427358266872e-05,-2.214075041082807973e-03
3.543187113320125578e-03,-9.018204426074755815e-05,-2.214075096851638499e-03
3.543187078471167657e-03,-9.018204424791242046e-05,-2.214075152620467724e-03
3.543187043622209303e-03,-9.018204423507728278e-05,-2.214075208389296515e-03
3.543187008773249647e-03,-9.018204422224213154e-05,-2.214075264158124872e-03
3.543186973924288691e-03,-9.018204420940700741e-05,-2.214075319926952796e-03
3.543186939075327734e-03,-9.018204419657186973e-05,-2.214075375695779852e-03
3.543186904226365043e-03,-9.018204418373671849e-05,-2.214075431464606475e-03
3.543186869377401484e-03,-9.018204417090158081e-05,-2.214075487233432230e-03
3.543186834528438359e-03,-9.018204415806644312e-05,-2.214075543002257986e-03
3.543186799679473500e-03,-9.018204414523131899e-05,-2.214075598771083307e-03
3.543186764830507773e-03,-9.018204413239616776e-05,-2.214075654539907761e-03
3.543186729981540311e-03,-9.018204411956103007e-05,-2.214075710308731782e-03
3.543186695132573283e-03,-9.018204410672589239e-05,-2.214075766077554502e-03
3.543186660283604954e-03,-9.018204409389075471e-05,-2.214075821846377655e-03
3.543186625434635324e-03,-9.018204408105561702e-05,-2.214075877615199941e-03
3.543186590585665260e-03,-9.018204406822046579e-05,-2.214075933384021359e-03
3.543186555736693895e-03,-9.018204405538531455e-05,-2.214075989152842344e-03
3.543186520887722964e-03,-9.018204404255019042e-05,-2.214076044921662895e-03
3.543186486038750298e-03,-9.018204402971505274e-05,-2.214076100690483013e-03
3.543186451189775897e-03,-9.018204401687991505e-05,-2.214076156459302263e-03
3.543186416340801496e-03,-9.018204400404476382e-05,-2.214076212228121079e-03
3.543186381491825795e-03,-9.018204399120962613e-05,-2.214076267996939462e-03
3.543186346642849226e-03,-9.018204397837448845e-05,-2.214076323765757411e-03
3.543186311793872657e-03,-9.018204396553935076e-05,-2.214076379534574927e-03
3.543186276944894787e-03,-9.018204395270421308e-05,-2.214076435303391141e-03
3.543186242095915615e-03,-9.018204393986906185e-05,-2.214076491072206922e-03
3.543186207246936011e-03,-9.018204392703392416e-05,-2.214076546841022702e-03
3.543186172397955538e-03,-9.018204391419878648e-05,-2.214076602609837616e-03
3.543186137548974199e-03,-9.018204390136364879e-05,-2.214076658378652095e-03
3.543186102699991558e-03,-9.018204388852848401e-05,-2.214076714147466141e-03
3.543186067851008918e-03,-9.018204387569335987e-05,-2.214076769916279320e-03
3.543186033002024542e-03,-9.018204386285822219e-05,-2.214076825685091631e-03
3.543185998153039300e-03,-9.018204385002305740e-05,-2.214076881453904376e-03
3.543185963304054057e-03,-9.018204383718793327e-05,-2.214076937222715820e-03
3.543185928455066646e-03,-9.018204382435279559e-05,-2.214076992991526830e-03
3.543185893606079235e-03,-9.018204381151764435e-05,-2.214077048760337407e-03
3.543185858757090956e-03,-9.018204379868249312e-05,-2.214077104529147549e-03
3.543185823908101377e-03,-9.018204378584734188e-05,-2.214077160297956391e-03
3.543185789059111798e-03,-9.018204377301220420e-05,-2.214077216066765667e-03
3.543185754210120050e-03,-9.018204376017706651e-05,-2.214077271835573641e-03
3.543185719361128302e-03,-9.018204374734192883e-05,-2.214077327604381615e-03
3.543185684512135253e-03,-9.018204373450676404e-05,-2.214077383373188723e-03
3.543185649663141770e-03,-9.018204372167161280e-05,-2.214077439141995396e-03
3.543185614814146987e-03,-9.018204370883648867e-05,-2.214077494910801202e-03
3.543185579965152203e-03,-9.018204369600133744e-05,-2.214077550679606574e-03
3.543185545116155251e-03,-9.018204368316619975e-05,-2.214077606448411513e-03
3.543185510267158299e-03,-9.018204367033104852e-05,-2.214077662217216018e-03
3.543185475418160046e-03,-9.018204365749591083e-05,-2.214077717986020089e-03
3.543185440569160925e-03,-9.018204364466075960e-05,-2.214077773754823727e-03
3.543185405720161371e-03,-9.018204363182560836e-05,-2.214077829523626063e-03
3.543185370871160516e-03,-9.018204361899047068e-05,-2.214077885292427966e-03
3.543185336022159227e-03,-9.018204360615531944e-05,-2.214077941061229869e-03
3.543185301173156204e-03,-9.018204359332016821e-05,-2.214077996830030905e-03
3.543185266324153180e-03,-9.018204358048503052e-05,-2.214078052598831507e-03
3.543185231475149289e-03,-9.018204356764987929e-05,-2.214078108367631675e-03
3.543185196626144097e-03,-9.018204355481472805e-05,-2.214078164136430542e-03
3.543185161777138905e-03,-9.018204354197957681e-05,-2.214078219905229409e-03
3.543185126928131111e-03,-9.018204352914443913e-05,-2.214078275674027842e-03
3.543185092079123751e-03,-9.018204351630927434e-05,-2.214078331442825842e-03
3.543185057230115089e-03,-9.018204350347412311e-05,-2.214078387211622975e-03
3.543185022381105994e-03,-9.018204349063899897e-05,-2.214078442980419240e-03
3.543184987532095164e-03,-9.018204347780383419e-05,-2.214078498749215505e-03
3.543184952683084334e-03,-9.018204346496866940e-05,-2.214078554518011336e-03
3.543184917834072203e-03,-9.018204345213353171e-05,-2.214078610286805866e-03
3.543184882985060073e-03,-9.018204343929839403e-05,-2.214078666055600397e-03
3.543184848136046207e-03,-9.018204342646324279e-05,-2.214078721824394060e-03
3.543184813287030607e-03,-9.018204341362810511e-05,-2.214078777593187289e-03
3.543184778438015440e-03,-9.018204340079294032e-05,-2.214078833361979651e-03
3.543184743588998972e-03,-9.018204338795778909e-05,-2.214078889130772013e-03
3.543184708739981204e-03,-9.018204337512265140e-05,-2.214078944899563941e-03
3.543184673890963868e-03,-9.018204336228750017e-05,-2.214079000668355002e-03
3.543184639041944365e-03,-9.018204334945234893e-05,-2.214079056437145195e-03
3.543184604192925295e-03,-9.018204333661719769e-05,-2.214079112205935389e-03
3.543184569343904491e-03,-9.018204332378203290e-05,-2.214079167974724715e-03
3.543184534494882819e-03,-9.018204331094690877e-05,-2.214079223743513174e-03
3.543184499645859412e-03,-9.018204329811174398e-05,-2.214079279512302066e-03
3.543184464796836439e-03,-9.018204328527659275e-05,-2.214079335281089658e-03
3.543184429947812599e-03,-9.018204327244142796e-05,-2.214079391049876382e-03
3.543184395098787024e-03,-9.018204325960629028e-05,-2.214079446818663106e-03
3.543184360249761449e-03,-9.018204324677113904e-05,-2.214079502587448962e-03
3.543184325400734573e-03,-9.018204323393598780e-05,-2.214079558356234385e-03
3.543184290551706396e-03,-9.018204322110082302e-05,-2.214079614125019808e-03
3.543184255702677785e-03,-9.018204320826567178e-05,-2.214079669893803930e-03
3.543184220853648741e-03,-9.018204319543052054e-05,-2.214079725662587619e-03
3.543184186004618395e-03,-9.018204318259536931e-05,-2.214079781431371307e-03
3.543184151155587616e-03,-9.018204316976021807e-05,-2.214079837200153694e-03
3.543184116306555102e-03,-9.018204315692506684e-05,-2.214079892968936081e-03
3.543184081457521721e-03,-9.018204314408991560e-05,-2.214079948737717168e-03
3.543184046608487906e-03,-9.018204313125475081e-05,-2.214080004506498688e-03
3.543184011759452790e-03,-9.018204311841961313e-05,-2.214080060275278906e-03
3.543183976910417241e-03,-9.018204310558444834e-05,-2.214080116044058692e-03
3.543183942061380824e-03,-9.018204309274931065e-05,-2.214080171812838477e-03
3.543183907212343973e-03,-9.018204307991413231e-05,-2.214080227581616961e-03
3.543183872363305821e-03,-9.018204306707896752e-05,-2.214080283350395011e-03
3.543183837514266368e-03,-9.018204305424382984e-05,-2.214080339119172628e-03
3.543183802665226048e-03,-9.018204304140867860e-05,-2.214080394887950245e-03
3.543183767816185294e-03,-9.018204302857351382e-05,-2.214080450656726561e-03
3.543183732967144107e-03,-9.018204301573836258e-05,-2.214080506425502443e-03
3.543183698118101618e-03,-9.018204300290321134e-05,-2.214080562194277891e-03
3.543183663269058262e-03,-9.018204299006804656e-05,-2.214080617963052906e-03
3.543183628420013172e-03,-9.018204297723288177e-05,-2.214080673731827487e-03
3.543183593570968515e-03,-9.018204296439774408e-05,-2.214080729500601200e-03
3.543183558721922990e-03,-9.018204295156257929e-05,-2.214080785269374480e-03
3.543183523872875731e-03,-9.018204293872742806e-05,-2.214080841038146893e-03
3.543183489023827605e-03,-9.018204292589227682e-05,-2.214080896806918872e-03
3.543183454174778611e-03,-9.018204291305712559e-05,-2.214080952575690417e-03
3.543183419325729184e-03,-9.018204290022196080e-05,-2.214081008344461962e-03
3.543183384476678889e-03,-9.018204288738679601e-05,-2.214081064113232640e-03
3.543183349627627727e-03,-9.018204287455164477e-05,-2.214081119882002017e-03
3.543183314778575697e-03,-9.018204286171649354e-05,-2.214081175650771394e-03
3.543183279929522367e-03,-9.018204284888131520e-05,-2.214081231419540337e-03
3.543183245080468169e-03,-9.018204283604617751e-05,-2.214081287188308413e-03
3.543183210231413971e-03,-9.018204282321102628e-05,-2.214081342957076055e-03
3.543183175382358038e-03,-9.018204281037584793e-05,-2.214081398725843263e-03
3.543183140533301672e-03,-9.018204279754069670e-05,-2.214081454494610038e-03
3.543183105684244438e-03,-9.018204278470553191e-05,-2.214081510263375512e-03
3.543183070835185470e-03,-9.018204277187036712e-05,-2.214081566032141419e-03
3.543183035986126501e-03,-9.018204275903520233e-05,-2.214081621800906025e-03
3.543183001137066232e-03,-9.018204274620005110e-05,-2.214081677569670632e-03
3.543182966288005529e-03,-9.018204273336488631e-05,-2.214081733338434371e-03
3.543182931438943525e-03,-9.018204272052972152e-05,-2.214081789107197242e-03
3.543182896589881520e-03,-9.018204270769457028e-05,-2.214081844875959680e-03
3.543182861740818215e-03,-9.018204269485941905e-05,-2.214081900644722118e-03
3.543182826891753175e-03,-9.018204268202426781e-05,-2.214081956413483689e-03
3.543182792042688135e-03,-9.018204266918907592e-05,-2.214082012182244825e-03
3.543182757193622228e-03,-9.018204265635392468e-05,-2.214082067951005095e-03
3.543182722344554586e-03,-9.018204264351877344e-05,-2.214082123719764931e-03
3.543182687495487378e-03,-9.018204263068360866e-05,-2.214082179488524333e-03
3.543182652646418435e-03,-9.018204261784844387e-05,-2.214082235257282868e-03
3.543182617797348624e-03,-9.018204260501327908e-05,-2.214082291026041403e-03
3.543182582948277946e-03,-9.018204259217812784e-05,-2.214082346794799070e-03
3.543182548099206835e-03,-9.018204257934296305e-05,-2.214082402563555870e-03
3.543182513250134422e-03,-9.018204256650778471e-05,-2.214082458332313104e-03
3.543182478401061142e-03,-9.018204255367263348e-05,-2.214082514101069037e-03
3.543182443551987429e-03,-9.018204254083748224e-05,-2.214082569869824102e-03
3.543182408702911981e-03,-9.018204252800230390e-05,-2.214082625638579167e-03
3.543182373853836966e-03,-9.018204251516715266e-05,-2.214082681407333365e-03
3.543182339004760217e-03,-9.018204250233197432e-05,-2.214082737176087130e-03
3.543182304155682600e-03,-9.018204248949682309e-05,-2.214082792944840460e-03
3.543182269306603682e-03,-9.018204247666165830e-05,-2.214082848713592924e-03
3.543182234457525198e-03,-9.018204246382649351e-05,-2.214082904482344519e-03
3.543182199608444546e-03,-9.018204245099132872e-05,-2.214082960251096115e-03
3.543182164759364327e-03,-9.018204243815616393e-05,-2.214083016019847278e-03
3.543182129910281940e-03,-9.018204242532099914e-05,-2.214083071788597572e-03
3.543182095061199986e-03,-9.018204241248584791e-05,-2.214083127557347434e-03
3.543182060212115431e-03,-9.018204239965068312e-05,-2.214083183326096861e-03
3.543182025363031742e-03,-9.018204238681549122e-05,-2.214083239094845421e-03
3.543181990513945452e-03,-9.018204237398032644e-05,-2.214083294863593548e-03
3.543181955664859595e-03,-9.018204236114516165e-05,-2.214083350632341674e-03
3.543181920815772438e-03,-9.018204234831002396e-05,-2.214083406401088500e-03
3.543181885966684846e-03,-9.018204233547484562e-05,-2.214083462169835325e-03
3.543181851117595954e-03,-9.018204232263966728e-05,-2.214083517938581283e-03
3.543181816268505761e-03,-9.018204230980451605e-05,-2.214083573707326807e-03
3.543181781419415134e-03,-9.018204229696933770e-05,-2.214083629476071464e-03
3.543181746570323639e-03,-9.018204228413418647e-05,-2.214083685244815688e-03
3.543181711721231277e-03,-9.018204227129900813e-05,-2.214083741013559044e-03
3.543181676872138482e-03,-9.018204225846382979e-05,-2.214083796782302833e-03
3.543181642023044385e-03,-9.018204224562866500e-05,-2.214083852551045322e-03
3.543181607173949855e-03,-9.018204223279350021e-05,-2.214083908319787377e-03
3.543181572324853590e-03,-9.018204221995833542e-05,-2.214083964088528565e-03
3.543181537475756891e-03,-9.018204220712317063e-05,-2.214084019857269752e-03
3.543181502626659759e-03,-9.018204219428800584e-05,-2.214084075626010072e-03
3.543181467777560458e-03,-9.018204218145284105e-05,-2.214084131394749959e-03
3.543181432928461591e-03,-9.018204216861766271e-05,-2.214084187163488978e-03
3.543181398079361423e-03,-9.018204215578248437e-05,-2.214084242932227997e-03
3.543181363230260388e-03,-9.018204214294731958e-05,-2.214084298700965715e-03
3.543181328381158051e-03,-9.018204213011215479e-05,-2.214084354469703867e-03
3.543181293532055715e-03,-9.018204211727699001e-05,-2.214084410238441152e-03
3.543181258682952077e-03,-9.018204210444182522e-05,-2.214084466007177569e-03
3.543181223833847138e-03,-9.018204209160666043e-05,-2.214084521775913552e-03
3.543181188984741766e-03,-9.018204207877148209e-05,-2.214084577544649102e-03
3.543181154135635526e-03,-9.018204206593631730e-05,-2.214084633313383350e-03
3.543181119286528419e-03,-9.018204205310113896e-05,-2.214084689082118033e-03
3.543181084437420879e-03,-9.018204204026597417e-05,-2.214084744850851848e-03
3.543181049588311170e-03,-9.018204202743080938e-05,-2.214084800619585229e-03
3.543181014739201894e-03,-9.018204201459564459e-05,-2.214084856388317309e-03
3.543180979890090884e-03,-9.018204200176046625e-05,-2.214084912157049390e-03
3.543180945040979440e-03,-9.018204198892528791e-05,-2.214084967925781470e-03
3.543180910191867563e-03,-9.018204197609010957e-05,-2.214085023694511815e-03
3.543180875342753517e-03,-9.018204196325495833e-05,-2.214085079463242161e-03
3.543180840493639471e-03,-9.018204195041979354e-05,-2.214085135231972506e-03
3.543180805644524992e-03,-9.018204193758460165e-05,-2.214085191000701551e-03
3.543180770795408344e-03,-9.018204192474942331e-05,-2.214085246769430162e-03
3.543180735946292129e-03,-9.018204191191425852e-05,-2.214085302538158339e-03
3.543180701097174180e-03,-9.018204189907909373e-05,-2.214085358306886082e-03
3.543180666248055798e-03,-9.018204188624391539e-05,-2.214085414075613392e-03
3.543180631398936114e-03,-9.018204187340875060e-05,-2.214085469844339835e-03
3.543180596549816864e-03,-9.018204186057357226e-05,-2.214085525613065410e-03
3.543180561700695012e-03,-9.018204184773839392e-05,-2.214085581381790985e-03
3.543180526851573160e-03,-9.018204183490321558e-05,-2.214085637150515259e-03
3.543180492002450006e-03,-9.018204182206803724e-05,-2.214085692919239533e-03
3.543180457153326419e-03,-9.018204180923288600e-05,-2.214085748687963373e-03
3.543180422304201532e-03,-9.018204179639770766e-05,-2.214085804456686780e-03
3.543180387455075776e-03,-9.018204178356251577e-05,-2.214085860225409753e-03
3.543180352605950455e-03,-9.018204177072735098e-05,-2.214085915994131425e-03
3.543180317756822965e-03,-9.018204175789217264e-05,-2.214085971762853097e-03
3.543180282907695041e-03,-9.018204174505700785e-05,-2.214086027531573467e-03
3.543180248058565383e-03,-9.018204173222182951e-05,-2.214086083300294272e-03
3.543180213209436158e-03,-9.018204171938665116e-05,-2.214086139069013776e-03
3.543180178360304765e-03,-9.018204170655147282e-05,-2.214086194837733279e-03
3.543180143511173805e-03,-9.018204169371630803e-05,-2.214086250606452349e-03
3.543180108662041111e-03,-9.018204168088112969e-05,-2.214086306375170118e-03
3.543180073812907983e-03,-9.018204166804596490e-05,-2.214086362143887887e-03
3.543180038963773554e-03,-9.018204165521075946e-05,-2.214086417912604788e-03
3.543180004114638692e-03,-9.018204164237559467e-05,-2.214086473681321256e-03
3.543179969265502095e-03,-9.018204162954042988e-05,-2.214086529450037290e-03
3.543179934416365497e-03,-9.018204161670525154e-05,-2.214086585218752890e-03
3.543179899567227599e-03,-9.018204160387005965e-05,-2.214086640987467623e-03
3.543179864718089267e-03,-9.018204159103489486e-05,-2.214086696756181923e-03
3.543179829868949634e-03,-9.018204157819973007e-05,-2.214086752524895355e-03
3.543179795019809133e-03,-9.018204156536453818e-05,-2.214086808293608353e-03
3.543179760170668199e-03,-9.018204155252935983e-05,-2.214086864062320918e-03
3.543179725321525964e-03,-9.018204153969418149e-05,-2.214086919831033048e-03
3.543179690472383295e-03,-9.018204152685900315e-05,-2.214086975599744746e-03
3.543179655623239326e-03,-9.018204151402382481e-05,-2.214087031368455142e-03
3.543179620774094922e-03,-9.018204150118864647e-05,-2.214087087137165972e-03
3.543179585924948784e-03,-9.018204148835346813e-05,-2.214087142905875501e-03
3.543179551075802212e-03,-9.018204147551828979e-05,-2.214087198674585030e-03
3.543179516226655640e-03,-9.018204146268309789e-05,-2.214087254443293257e-03
3.543179481377507333e-03,-9.018204144984793310e-05,-2.214087310212001485e-03
3.543179446528357725e-03,-9.018204143701275476e-05,-2.214087365980709279e-03
3.543179411679208118e-03,-9.018204142417757642e-05,-2.214087421749416206e-03
3.543179376830056775e-03,-9.018204141134238453e-05,-2.214087477518122699e-03
3.543179341980905433e-03,-9.018204139850721974e-05,-2.214087533286828325e-03
3.543179307131753657e-03,-9.018204138567204140e-05,-2.214087589055533951e-03
3.543179272282599712e-03,-9.018204137283684951e-05,-2.214087644824239143e-03
3.543179237433445334e-03,-9.018204136000167116e-05,-2.214087700592943034e-03
3.543179202584290088e-03,-9.018204134716647927e-05,-2.214087756361646925e-03
3.543179167735134409e-03,-9.018204133433131448e-05,-2.214087812130349948e-03
3.543179132885976995e-03,-9.018204132149610904e-05,-2.214087867899052538e-03
3.543179098036819148e-03,-9.018204130866094425e-05,-2.214087923667754261e-03
3.543179063187660432e-03,-9.018204129582577946e-05,-2.214087979436455984e-03
3.543179028338501284e-03,-9.018204128299058756e-05,-2.214088035205155972e-03
3.543178993489340834e-03,-9.018204127015540922e-05,-2.214088090973857260e-03
3.543178958640179083e-03,-9.018204125732020378e-05,-2.214088146742556381e-03
3.543178923791016899e-03,-9.018204124448503899e-05,-2.214088202511255935e-03
3.543178888941854281e-03,-9.018204123164986065e-05,-2.214088258279954188e-03
3.543178854092690361e-03,-9.018204121881466875e-05,-2.214088314048653309e-03
3.543178819243526009e-03,-9.018204120597949041e-05,-2.214088369817349827e-03
3.543178784394359921e-03,-9.018204119314429852e-05,-2.214088425586047213e-03
3.543178749545193833e-03,-9.018204118030912018e-05,-2.214088481354744165e-03
3.543178714696025577e-03,-9.018204116747394184e-05,-2.214088537123439816e-03
3.543178679846857755e-03,-9.018204115463874994e-05,-2.214088592892135034e-03
3.543178644997688632e-03,-9.018204114180357160e-05,-2.214088648660829384e-03
3.543178610148518207e-03,-9.018204112896837971e-05,-2.214088704429523734e-03
3.543178575299347349e-03,-9.018204111613320137e-05,-2.214088760198217650e-03
3.543178540450176058e-03,-9.018204110329800947e-05,-2.214088815966910699e-03
3.543178505601003031e-03,-9.018204109046283113e-05,-2.214088871735603748e-03
3.543178470751830005e-03,-9.018204107762763924e-05,-2.214088927504295496e-03
3.543178435902655243e-03,-9.018204106479246090e-05,-2.214088983272986810e-03
3.543178401053480048e-03,-9.018204105195728256e-05,-2.214089039041677257e-03
3.543178366204303986e-03,-9.018204103912210421e-05,-2.214089094810367704e-03
3.543178331355127057e-03,-9.018204102628689877e-05,-2.214089150579057717e-03
3.543178296505949260e-03,-9.018204101345172043e-05,-2.214089206347746863e-03
3.543178261656770595e-03,-9.018204100061654209e-05,-2.214089262116435575e-03
3.543178226807591497e-03,-9.018204098778135019e-05,-2.214089317885123420e-03
3.543178191958409797e-03,-9.018204097494614475e-05,-2.214089373653811265e-03
3.543178157109228964e-03,-9.018204096211099351e-05,-2.214089429422498242e-03
3.543178122260046831e-03,-9.018204094927578806e-05,-2.214089485191184353e-03
3.543178087410863829e-03,-9.018204093644060972e-05,-2.214089540959870029e-03
3.543178052561679961e-03,-9.018204092360541783e-05,-2.214089596728555705e-03
3.543178017712495225e-03,-9.018204091077022594e-05,-2.214089652497240514e-03
3.543177982863308755e-03,-9.018204089793504759e-05,-2.214089708265924890e-03
3.543177948014122718e-03,-9.018204088509985570e-05,-2.214089764034608398e-03
3.543177913164934946e-03,-9.018204087226466381e-05,-2.214089819803291472e-03
3.543177878315747174e-03,-9.018204085942947191e-05,-2.214089875571974113e-03
3.543177843466557668e-03,-9.018204084659428002e-05,-2.214089931340655886e-03
3.543177808617367728e-03,-9.018204083375908813e-05,-2.214089987109337659e-03
3.543177773768176921e-03,-9.018204082092390978e-05,-2.214090042878018565e-03
3.543177738918985246e-03,-9.018204080808871789e-05,-2.214090098646698604e-03
3.543177704069791836e-03,-9.018204079525353955e-05,-2.214090154415378209e-03
3.543177669220598860e-03,-9.018204078241834766e-05,-2.214090210184057380e-03
3.543177634371404150e-03,-9.018204076958314221e-05,-2.214090265952736118e-03
3.543177599522208572e-03,-9.018204075674796387e-05,-2.214090321721414421e-03
3.543177564673012994e-03,-9.018204074391278553e-05,-2.214090377490091424e-03
3.543177529823815682e-03,-9.018204073107758008e-05,-2.214090433258768861e-03
3.543177494974617068e-03,-9.018204071824240174e-05,-2.214090489027444996e-03
3.543177460125419322e-03,-9.018204070540718274e-05,-2.214090544796120698e-03
3.543177425276218973e-03,-9.018204069257201795e-05,-2.214090600564795966e-03
3.543177390427018191e-03,-9.018204067973681251e-05,-2.214090656333470800e-03
3.543177355577816975e-03,-9.018204066690163417e-05,-2.214090712102144767e-03
3.543177320728614459e-03,-9.018204065406644227e-05,-2.214090767870818734e-03
3.543177285879411074e-03,-9.018204064123125038e-05,-2.214090823639491834e-03
3.543177251030207257e-03,-9.018204062839605848e-05,-2.214090879408164066e-03
3.543177216181003005e-03,-9.018204061556085304e-05,-2.214090935176836299e-03
3.543177181331796585e-03,-9.018204060272567470e-05,-2.214090990945508097e-03
3.543177146482590165e-03,-9.018204058989045570e-05,-2.214091046714178595e-03
3.543177111633382878e-03,-9.018204057705529091e-05,-2.214091102482849092e-03
3.543177076784174290e-03,-9.018204056422009902e-05,-2.214091158251518723e-03
3.543177041934964834e-03,-9.018204055138489357e-05,-2.214091214020187919e-03
3.543177007085754511e-03,-9.018204053854971523e-05,-2.214091269788856248e-03
3.543176972236543321e-03,-9.018204052571450978e-05,-2.214091325557524578e-03
3.543176937387331697e-03,-9.018204051287930434e-05,-2.214091381326192039e-03
3.543176902538118771e-03,-9.018204050004411244e-05,-2.214091437094858634e-03
3.543176867688905413e-03,-9.018204048720893410e-05,-2.214091492863525228e-03
3.543176832839690753e-03,-9.018204047437374221e-05,-2.214091548632190955e-03
3.543176797990475659e-03,-9.018204046153853676e-05,-2.214091604400856683e-03
3.543176763141259265e-03,-9.018204044870334487e-05,-2.214091660169521109e-03
3.543176728292041569e-03,-9.018204043586815297e-05,-2.214091715938185535e-03
3.543176693442823873e-03,-9.018204042303297463e-05,-2.214091771706849093e-03
3.543176658593604877e-03,-9.018204041019776919e-05,-2.214091827475511785e-03
3.543176623744385446e-03,-9.018204039736256374e-05,-2.214091883244174042e-03
3.543176588895164715e-03,-9.018204038452737185e-05,-2.214091939012836300e-03
3.543176554045943116e-03,-9.018204037169216640e-05,-2.214091994781497690e-03
3.543176519196721084e-03,-9.018204035885698806e-05,-2.214092050550159081e-03
3.543176484347497317e-03,-9.018204034602179617e-05,-2.214092106318818736e-03
3.543176449498273116e-03,-9.018204033318659072e-05,-2.214092162087478825e-03
3.543176414649048048e-03,-9.018204032035138527e-05,-2.214092217856138047e-03
3.543176379799822112e-03,-9.018204030751619338e-05,-2.214092273624796402e-03
3.543176344950595743e-03,-9.018204029468100149e-05,-2.214092329393454756e-03
3.543176310101368506e-03,-9.018204028184580959e-05,-2.214092385162112243e-03
3.543176275252139535e-03,-9.018204026901059059e-05,-2.214092440930769297e-03
3.543176240402910564e-03,-9.018204025617541225e-05,-2.214092496699425483e-03
3.543176205553679858e-03,-9.018204024334019325e-05,-2.214092552468081235e-03
3.543176170704448718e-03,-9.018204023050501491e-05,-2.214092608236736554e-03
3.543176135855216711e-03,-9.018204021766982302e-05,-2.214092664005391439e-03
3.543176101005983836e-03,-9.018204020483460402e-05,-2.214092719774045457e-03
3.543176066156750095e-03,-9.018204019199942568e-05,-2.214092775542699041e-03
3.543176031307515919e-03,-9.018204017916420668e-05,-2.214092831311351758e-03
3.543175996458280009e-03,-9.018204016632901479e-05,-2.214092887080004041e-03
3.543175961609044099e-03,-9.018204015349382289e-05,-2.214092942848656324e-03
3.543175926759806454e-03,-9.018204014065861745e-05,-2.214092998617307739e-03
3.543175891910569242e-03,-9.018204012782342555e-05,-2.214093054385958288e-03
3.543175857061329863e-03,-9.018204011498822011e-05,-2.214093110154608402e-03
3.543175822212089616e-03,-9.018204010215302821e-05,-2.214093165923258517e-03
3.543175787362848935e-03,-9.018204008931780921e-05,-2.214093221691907764e-03
3.543175752513607387e-03,-9.018204007648260377e-05,-2.214093277460555710e-03
3.543175717664365405e-03,-9.018204006364742543e-05,-2.214093333229204090e-03
3.543175682815121689e-03,-9.018204005081223353e-05,-2.214093388997851602e-03
3.543175647965877105e-03,-9.018204003797702809e-05,-2.214093444766498681e-03
3.543175613116632088e-03,-9.018204002514182264e-05,-2.214093500535144893e-03
3.543175578267386636e-03,-9.018204001230661719e-05,-2.214093556303790237e-03
3.543175543418139017e-03,-9.018203999947142530e-05,-2.214093612072436015e-03
3.543175508568891831e-03,-9.018203998663621985e-05,-2.214093667841080925e-03
3.543175473719643344e-03,-9.018203997380104151e-05,-2.214093723609724534e-03
3.543175438870393556e-03,-9.018203996096579541e-05,-2.214093779378368577e-03
3.543175404021143334e-03,-9.018203994813061707e-05,-2.214093835147011319e-03
3.543175369171892245e-03,-9.018203993529541162e-05,-2.214093890915654061e-03
3.543175334322640722e-03,-9.018203992246020618e-05,-2.214093946684295936e-03
3.543175299473387465e-03,-9.018203990962500073e-05,-2.214094002452936943e-03
3.543175264624133774e-03,-9.018203989678979528e-05,-2.214094058221577951e-03
3.543175229774878348e-03,-9.018203988395460339e-05,-2.214094113990218091e-03
3.543175194925623789e-03,-9.018203987111938439e-05,-2.214094169758857797e-03
3.543175160076367063e-03,-9.018203985828419250e-05,-2.214094225527497069e-03
3.543175125227110336e-03,-9.018203984544898705e-05,-2.214094281296135041e-03
3.543175090377851874e-03,-9.018203983261378160e-05,-2.214094337064773446e-03
3.543175055528592545e-03,-9.018203981977858971e-05,-2.214094392833411418e-03
3.543175020679332349e-03,-9.018203980694337071e-05,-2.214094448602048522e-03
3.543174985830072586e-03,-9.018203979410817882e-05,-2.214094504370684759e-03
3.543174950980810221e-03,-9.018203978127295982e-05,-2.214094560139320128e-03
3.543174916131547857e-03,-9.018203976843776793e-05,-2.214094615907955931e-03
3.543174881282283757e-03,-9.018203975560253537e-05,-2.214094671676590433e-03
3.543174846433020091e-03,-9.018203974276735703e-05,-2.214094727445224068e-03
3.543174811583754691e-03,-9.018203972993213803e-05,-2.214094783213857703e-03
3.543174776734489290e-03,-9.018203971709695969e-05,-2.214094838982490470e-03
3.543174741885221288e-03,-9.018203970426172714e-05,-2.214094894751123237e-03
3.543174707035954586e-03,-9.018203969142653525e-05,-2.214094950519754704e-03
3.543174672186686150e-03,-9.018203967859131625e-05,-2.214095006288386170e-03
3.543174637337415979e-03,-9.018203966575612436e-05,-2.214095062057016769e-03
3.543174602488145808e-03,-9.018203965292091891e-05,-2.214095117825646934e-03
3.543174567638873902e-03,-9.018203964008571346e-05,-2.214095173594277099e-03
3.543174532789602430e-03,-9.018203962725049446e-05,-2.214095229362905964e-03
3.543174497940329223e-03,-9.018203961441528902e-05,-2.214095285131534828e-03
3.543174463091055149e-03,-9.018203960158009712e-05,-2.214095340900162825e-03
3.543174428241780641e-03,-9.018203958874487813e-05,-2.214095396668789954e-03
3.543174393392504833e-03,-9.018203957590965913e-05,-2.214095452437416650e-03
3.543174358543228590e-03,-9.018203956307446723e-05,-2.214095508206043780e-03
3.543174323693951046e-03,-9.018203955023924823e-05,-2.214095563974669174e-03
3.543174288844673069e-03,-9.018203953740404279e-05,-2.214095619743294569e-03
3.543174253995393791e-03,-9.018203952456885089e-05,-2.214095675511918663e-03
3.543174219146113645e-03,-9.018203951173361834e-05,-2.214095731280543190e-03
3.543174184296833066e-03,-9.018203949889841290e-05,-2.214095787049166850e-03
3.543174149447550752e-03,-9.018203948606320745e-05,-2.214095842817790077e-03
3.543174114598268438e-03,-9.018203947322800200e-05,-2.214095898586412002e-03
3.543174079748984823e-03,-9.018203946039279656e-05,-2.214095954355033927e-03
3.543174044899700774e-03,-9.018203944755757756e-05,-2.214096010123655419e-03
3.543174010050415424e-03,-9.018203943472237211e-05,-2.214096065892276477e-03
3.543173975201129641e-03,-9.018203942188716667e-05,-2.214096121660896234e-03
3.543173940351842556e-03,-9.018203940905196122e-05,-2.214096177429515991e-03
3.543173905502554604e-03,-9.018203939621675577e-05,-2.214096233198134880e-03
3.543173870653265785e-03,-9.018203938338152322e-05,-2.214096288966753336e-03
3.543173835803976098e-03,-9.018203937054631778e-05,-2.214096344735371792e-03
3.543173800954685978e-03,-9.018203935771108523e-05,-2.214096400503988947e-03
3.543173766105394123e-03,-9.018203934487589333e-05,-2.214096456272606102e-03
3.543173731256102268e-03,-9.018203933204068789e-05,-2.214096512041222389e-03
3.543173696406809112e-03,-9.018203931920548244e-05,-2.214096567809838243e-03
3.543173661557515522e-03,-9.018203930637026344e-05,-2.214096623578453230e-03
3.543173626708220631e-03,-9.018203929353507155e-05,-2.214096679347068216e-03
3.543173591858924006e-03,-9.018203928069983900e-05,-2.214096735115681468e-03
3.543173557009628247e-03,-9.018203926786464710e-05,-2.214096790884295587e-03
3.543173522160330321e-03,-9.018203925502941455e-05,-2.214096846652908838e-03
3.543173487311032394e-03,-9.018203924219420910e-05,-2.214096902421520789e-03
3.543173452461733600e-03,-9.018203922935897655e-05,-2.214096958190133173e-03
3.543173417612433072e-03,-9.018203921652378466e-05,-2.214097013958743823e-03
3.543173382763132109e-03,-9.018203920368856566e-05,-2.214097069727354906e-03
3.543173347913830713e-03,-9.018203919085337377e-05,-2.214097125495964689e-03
3.543173313064528016e-03,-9.018203917801814122e-05,-2.214097181264574471e-03
3.543173278215224018e-03,-9.018203916518292222e-05,-2.214097237033183820e-03
3.543173243365919586e-03,-9.018203915234771677e-05,-2.214097292801791867e-03
3.543173208516614721e-03,-9.018203913951248422e-05,-2.214097348570399915e-03
3.543173173667308121e-03,-9.018203912667729233e-05,-2.214097404339007962e-03
3.543173138818001520e-03,-9.018203911384204622e-05,-2.214097460107615142e-03
3.543173103968693186e-03,-9.018203910100685433e-05,-2.214097515876221021e-03
3.543173069119384417e-03,-9.018203908817162178e-05,-2.214097571644826467e-03
3.543173034270074781e-03,-9.018203907533642988e-05,-2.214097627413431479e-03
3.543172999420764278e-03,-9.018203906250121089e-05,-2.214097683182036057e-03
3.543172964571452907e-03,-9.018203904966596478e-05,-2.214097738950640201e-03
3.543172929722141103e-03,-9.019105724073444132e-05,-2.214097794719243478e-03
3.543172894869342504e-03,-9.020819181531122128e-05,-2.214097850493423458e-03
3.543172860009922032e-03,-9.023263113504057778e-05,-2.214097906278199128e-03
3.543172825141056859e-03,-9.026364472540247320e-05,-2.214097962078087276e-03
3.543172790260206480e-03,-9.030057515932896311e-05,-2.214098017897153225e-03
3.543172755365082797e-03,-9.034283075245895446e-05,-2.214098073739056809e-03
3.543172720453630596e-03,-9.038987898886755024e-05,-2.214098129607090532e-03
3.543172685523995457e-03,-9.044124060422242849e-05,-2.214098185504218604e-03
3.543172650574512479e-03,-9.049648426062450221e-05,-2.214098241433108596e-03
3.543172615603679826e-03,-9.055522175396468114e-05,-2.214098297396159629e-03
3.543172580610148316e-03,-9.061710370054485862e-05,-2.214098353395534038e-03
3.543172545592703209e-03,-9.068181565503673864e-05,-2.214098409433175579e-03
3.543172510550250762e-03,-9.074907461664487513e-05,-2.214098465510834588e-03
3.543172475481805219e-03,-9.081862588465342760e-05,-2.214098521630085761e-03
3.543172440386482304e-03,-9.089024022841819112e-05,-2.214098577792347235e-03
3.543172405263484911e-03,-9.096371134035934058e-05,-2.214098633998893596e-03
3.543172370112093999e-03,-9.103885354365512557e-05,-2.214098690250875402e-03
3.543172334931665984e-03,-9.111549972916592325e-05,-2.214098746549323510e-03
3.543172299721617131e-03,-9.119349949866613543e-05,-2.214098802895169468e-03
3.543172264481427025e-03,-9.127271749375274134e-05,-2.214098859289249412e-03
3.543172229210622085e-03,-9.135303189186301553e-05,-2.214098915732318380e-03
3.543172193908780774e-03,-9.143433305269049423e-05,-2.214098972225052482e-03
3.543172158575521452e-03,-9.151652229995946308e-05,-2.214099028768062773e-03
3.543172123210499777e-03,-9.159951082502166121e-05,-2.214099085361898294e-03
3.543172087813408703e-03,-9.168321870009374331e-05,-2.214099142007053007e-03
3.543172052383968505e-03,-9.176757399017070537e-05,-2.214099198703973169e-03
3.543172016921929818e-03,-9.185251195374799092e-05,-2.214099255453057333e-03
3.543171981427067560e-03,-9.193797432347155065e-05,-2.214099312254666323e-03
3.543171945899178336e-03,-9.202390865872273746e-05,-2.214099369109124530e-03
3.543171910338080866e-03,-9.211026776294478928e-05,-2.214099426016725124e-03
3.543171874743610353e-03,-9.219700915923658639e-05,-2.214099482977728746e-03
3.543171839115619344e-03,-9.228409461838711289e-05,-2.214099539992373054e-03
3.543171803453974266e-03,-9.237148973410649921e-05,-2.214099597060870117e-03
3.543171767758555857e-03,-9.245916354073385594e-05,-2.214099654183412057e-03
3.543171732029256563e-03,-9.254708816917436094e-05,-2.214099711360171044e-03
3.543171696265980108e-03,-9.263523853724266210e-05,-2.214099768591301903e-03
3.543171660468637588e-03,-9.272359207097198856e-05,-2.214099825876944278e-03
3.543171624637151372e-03,-9.281212845379221814e-05,-2.214099883217223504e-03
3.543171588771451205e-03,-9.290082940079024353e-05,-2.214099940612253639e-03
3.543171552871473336e-03,-9.298967845554422754e-05,-2.214099998062135730e-03
3.543171516937160086e-03,-9.307866080727460070e-05,-2.214100055566961284e-03
3.543171480968459412e-03,-9.316776312627968138e-05,-2.214100113126813135e-03
3.543171444965326645e-03,-9.325697341582798051e-05,-2.214100170741765440e-03
3.543171408927718851e-03,-9.334628087886111454e-05,-2.214100228411884554e-03
3.543171372855598300e-03,-9.343567579802661825e-05,-2.214100286137230759e-03
3.543171336748932466e-03,-9.352514942770718349e-05,-2.214100343917858697e-03
3.543171300607690123e-03,-9.361469389684729122e-05,-2.214100401753816508e-03
3.543171264431842649e-03,-9.370430212149691057e-05,-2.214100459645147560e-03
3.543171228221367493e-03,-9.379396772610111815e-05,-2.214100517591891751e-03
3.543171191976241668e-03,-9.388368497266029314e-05,-2.214100575594084210e-03
3.543171155696443926e-03,-9.397344869697501807e-05,-2.214100633651757896e-03
3.543171119381959520e-03,-9.406325425126562745e-05,-2.214100691764941432e-03
3.543171083032768936e-03,-9.415309745253045218e-05,-2.214100749933659105e-03
3.543171046648859596e-03,-9.424297453606807814e-05,-2.214100808157936067e-03
3.543171010230217188e-03,-9.433288211364707814e-05,-2.214100866437791835e-03
3.543170973776830872e-03,-9.442281713585934117e-05,-2.214100924773245924e-03
3.543170937288688937e-03,-9.451277685823741284e-05,-2.214100983164314813e-03
3.543170900765784011e-03,-9.460275881076064515e-05,-2.214101041611015418e-03
3.543170864208104818e-03,-9.469276077041046172e-05,-2.214101100113359012e-03
3.543170827615645287e-03,-9.478278073647010448e-05,-2.214101158671359908e-03
3.543170790988398912e-03,-9.487281690829457248e-05,-2.214101217285027647e-03
3.543170754326357887e-03,-9.496286766530321580e-05,-2.214101275954373504e-03
3.543170717629517009e-03,-9.505293154897357689e-05,-2.214101334679406587e-03
3.543170680897871506e-03,-9.514300724663534640e-05,-2.214101393460134702e-03
3.543170644131417475e-03,-9.523309357688533670e-05,-2.214101452296564788e-03
3.543170607330148845e-03,-9.532318947646058541e-05,-2.214101511188703783e-03
3.543170570494063882e-03,-9.541329398842450906e-05,-2.214101570136556459e-03
3.543170533623158248e-03,-9.550340625153405107e-05,-2.214101629140130187e-03
3.543170496717429774e-03,-9.559352549067062180e-05,-2.214101688199428004e-03
3.543170459776874559e-03,-9.568365100822735910e-05,-2.214101747314455547e-03
3.543170422801491300e-03,-9.577378217635813991e-05,-2.214101806485216720e-03
3.543170385791277396e-03,-9.586391843000143041e-05,-2.214101865711713257e-03
3.543170348746230245e-03,-9.595405926060184747e-05,-2.214101924993949495e-03
3.543170311666349413e-03,-9.604420421045956795e-05,-2.214101984331928469e-03
3.543170274551631430e-03,-9.613435286764471580e-05,-2.214102043725652350e-03
3.543170237402077163e-03,-9.622450486142036189e-05,-2.214102103175123737e-03
3.543170200217683578e-03,-9.631465985812342318e-05,-2.214102162680344366e-03
3.543170162998449807e-03,-9.640481755745689452e-05,-2.214102222241315972e-03
3.543170125744375849e-03,-9.649497768915363662e-05,-2.214102281858040290e-03
3.543170088455459537e-03,-9.658514000997319023e-05,-2.214102341530519488e-03
3.543170051131699569e-03,-9.667530430099910410e-05,-2.214102401258754432e-03
3.543170013773096812e-03,-9.676547036520656802e-05,-2.214102461042746425e-03
3.543169976379650834e-03,-9.685563802527325959e-05,-2.214102520882496334e-03
3.543169938951358598e-03,-9.694580712160909134e-05,-2.214102580778005026e-03
3.543169901488221404e-03,-9.703597751058299812e-05,-2.214102640729273801e-03
3.543169863990237953e-03,-9.712614906292696437e-05,-2.214102700736303529e-03
3.543169826457409112e-03,-9.721632166229980860e-05,-2.214102760799094207e-03
3.543169788889733145e-03,-9.730649520399447562e-05,-2.214102820917647138e-03
3.543169751287209186e-03,-9.739666959377457915e-05,-2.214102881091962755e-03
3.543169713649838102e-03,-9.748684474682738782e-05,-2.214102941322041926e-03
3.543169675977619892e-03,-9.757702058682143659e-05,-2.214103001607884216e-03
3.543169638270554124e-03,-9.766719704505839612e-05,-2.214103061949490928e-03
3.543169600528638628e-03,-9.775737405970978081e-05,-2.214103122346861626e-03
3.543169562751876008e-03,-9.784755157512993061e-05,-2.214103182799997613e-03
3.543169524940263226e-03,-9.793772954123779889e-05,-2.214103243308898454e-03
3.543169487093802451e-03,-9.802790791296032307e-05,-2.214103303873565017e-03
3.543169449212493251e-03,-9.811808664973186204e-05,-2.214103364493996869e-03
3.543169411296333456e-03,-9.820826571504328998e-05,-2.214103425170194442e-03
3.543169373345325234e-03,-9.829844507603639639e-05,-2.214103485902158604e-03
3.543169335359467719e-03,-9.838862470313878097e-05,-2.214103546689888923e-03
3.543169297338760477e-03,-9.847880456973525905e-05,-2.214103607533384963e-03
3.543169259283203507e-03,-9.856898465187222678e-05,-2.214103668432648025e-03
3.543169221192797244e-03,-9.865916492799134039e-05,-2.214103729387678111e-03
3.543169183067541254e-03,-9.874934537869017859e-05,-2.214103790398474787e-03
3.543169144907434669e-03,-9.883952598650649988e-05,-2.214103851465038485e-03
3.543169106712478356e-03,-9.892970673572431943e-05,-2.214103912587368338e-03
3.543169068482672317e-03,-9.901988761219920345e-05,-2.214103973765466082e-03
3.543169030218016116e-03,-9.911006860320120898e-05,-2.214104034999330416e-03
3.543168991918510188e-03,-9.920024969727334128e-05,-2.214104096288963073e-03
3.543168953584153666e-03,-9.929043088410434979e-05,-2.214104157634361452e-03
3.543168915214947416e-03,-9.938061215441403311e-05,-2.214104219035528589e-03
3.543168876810891439e-03,-9.947079349985026692e-05,-2.214104280492462749e-03
3.543168838371984000e-03,-9.956097491289612848e-05,-2.214104342005164365e-03
3.543168799898227268e-03,-9.965115638678634531e-05,-2.214104403573633004e-03
3.543168761389620374e-03,-9.974133791543221420e-05,-2.214104465197869534e-03
3.543168722846162452e-03,-9.983151949335383854e-05,-2.214104526877873087e-03
3.543168684267854803e-03,-9.992170111561938595e-05,-2.214104588613644963e-03
3.543168645654696559e-03,-1.000118827777901598e-04,-2.214104650405183863e-03
3.543168607006687721e-03,-1.001020644758713360e-04,-2.214104712252490652e-03
3.543168568323829155e-03,-1.001922462062675644e-04,-2.214104774155565333e-03
3.543168529606119128e-03,-1.002824279657429896e-04,-2.214104836114407469e-03
3.543168490853560240e-03,-1.003726097513854581e-04,-2.214104898129017063e-03
3.543168452066149023e-03,-1.004627915605738568e-04,-2.214104960199394546e-03
3.543168413243889380e-03,-1.005529733909493414e-04,-2.214105022325539487e-03
3.543168374386777841e-03,-1.006431552403888135e-04,-2.214105084507452751e-03
3.543168335494816142e-03,-1.007333371069815702e-04,-2.214105146745133472e-03
3.543168296568004281e-03,-1.008235189890079991e-04,-2.214105209038582083e-03
3.543168257606342259e-03,-1.009137008849203201e-04,-2.214105271387797717e-03
3.543168218609829209e-03,-1.010038827933256453e-04,-2.214105333792781675e-03
3.543168179578465998e-03,-1.010940647129702981e-04,-2.214105396253533524e-03
3.543168140512252626e-03,-1.011842466427260577e-04,-2.214105458770052829e-03
3.543168101411187359e-03,-1.012744285815773791e-04,-2.214105521342340024e-03
3.543168062275272798e-03,-1.013646105286103883e-04,-2.214105583970395110e-03
3.543168023104507642e-03,-1.014547924830025552e-04,-2.214105646654217652e-03
3.543167983898891892e-03,-1.015449744440135731e-04,-2.214105709393808085e-03
3.543167944658425113e-03,-1.016351564109772403e-04,-2.214105772189166408e-03
3.543167905383108607e-03,-1.017253383832938577e-04,-2.214105835040292621e-03
3.543167866072941506e-03,-1.018155203604238177e-04,-2.214105897947186291e-03
3.543167826727922944e-03,-1.019057023418813571e-04,-2.214105960909847851e-03
3.543167787348054654e-03,-1.019958843272293528e-04,-2.214106023928277735e-03
3.543167747933335769e-03,-1.020860663160743476e-04,-2.214106087002475076e-03
3.543167708483766290e-03,-1.021762483080622820e-04,-2.214106150132439440e-03
3.543167668999346216e-03,-1.022664303028744545e-04,-2.214106213318172561e-03
3.543167629480075114e-03,-1.023566123002240397e-04,-2.214106276559673573e-03
3.543167589925954285e-03,-1.024467942998529024e-04,-2.214106339856941608e-03
3.543167550336981993e-03,-1.025369763015286710e-04,-2.214106403209977533e-03
3.543167510713159541e-03,-1.026271583050422708e-04,-2.214106466618781782e-03
3.543167471054487361e-03,-1.027173403102055112e-04,-2.214106530083353921e-03
3.543167431360963720e-03,-1.028075223168489722e-04,-2.214106593603693517e-03
3.543167391632589917e-03,-1.028977043248202692e-04,-2.214106657179800135e-03
3.543167351869364219e-03,-1.029878863339821421e-04,-2.214106720811675078e-03
3.543167312071289227e-03,-1.030780683442111004e-04,-2.214106784499318345e-03
3.543167272238363641e-03,-1.031682503553960268e-04,-2.214106848242729068e-03
3.543167232370587460e-03,-1.032584323674368902e-04,-2.214106912041906815e-03
3.543167192467960250e-03,-1.033486143802436340e-04,-2.214106975896853752e-03
3.543167152530482013e-03,-1.034387963937352276e-04,-2.214107039807568147e-03
3.543167112558153614e-03,-1.035289784078387586e-04,-2.214107103774049998e-03
3.543167072550975055e-03,-1.036191604224885512e-04,-2.214107167796299305e-03
3.543167032508945467e-03,-1.037093424376255300e-04,-2.214107231874316069e-03
3.543166992432065718e-03,-1.037995244531965421e-04,-2.214107296008101591e-03
3.543166952320334941e-03,-1.038897064691536386e-04,-2.214107360197654570e-03
3.543166912173754002e-03,-1.039798884854538309e-04,-2.214107424442975005e-03
3.543166871992322036e-03,-1.040700705020582910e-04,-2.214107488744063330e-03
3.543166831776039041e-03,-1.041602525189321346e-04,-2.214107553100919980e-03
3.543166791524905886e-03,-1.042504345360439335e-04,-2.214107617513543652e-03
3.543166751238921702e-03,-1.043406165533654036e-04,-2.214107681981935215e-03
3.543166710918087357e-03,-1.044307985708710932e-04,-2.214107746506094668e-03
3.543166670562401983e-03,-1.045209805885381120e-04,-2.214107811086022011e-03
3.543166630171867316e-03,-1.046111626063457790e-04,-2.214107875721716377e-03
3.543166589746480754e-03,-1.047013446242755407e-04,-2.214107940413179067e-03
3.543166549286244030e-03,-1.047915266423107275e-04,-2.214108005160409648e-03
3.543166508791156279e-03,-1.048817086604362690e-04,-2.214108069963408119e-03
3.543166468261217499e-03,-1.049718906786386126e-04,-2.214108134822174046e-03
3.543166427696428557e-03,-1.050620726969055612e-04,-2.214108199736707430e-03
3.543166387096789022e-03,-1.051522547152261100e-04,-2.214108264707008705e-03
3.543166346462298458e-03,-1.052424367335904199e-04,-2.214108329733077869e-03
3.543166305792957733e-03,-1.053326187519895463e-04,-2.214108394814915358e-03
3.543166265088766413e-03,-1.054228007704155202e-04,-2.214108459952519870e-03
3.543166224349724065e-03,-1.055129827888610911e-04,-2.214108525145892705e-03
3.543166183575830689e-03,-1.056031648073197808e-04,-2.214108590395032564e-03
3.543166142767087152e-03,-1.056933468257856940e-04,-2.214108655699940312e-03
3.543166101923493454e-03,-1.057835288442536130e-04,-2.214108721060616385e-03
3.543166061045047860e-03,-1.058737108627187673e-04,-2.214108786477059915e-03
3.543166020131752105e-03,-1.059638928811768743e-04,-2.214108851949270033e-03
3.543165979183605322e-03,-1.060540748996241121e-04,-2.214108917477249344e-03
3.543165938200608378e-03,-1.061442569180569436e-04,-2.214108983060996110e-03
3.543165897182760406e-03,-1.062344389364722652e-04,-2.214109048700509900e-03
3.543165856130062272e-03,-1.063246209548673529e-04,-2.214109114395792013e-03
3.543165815042513111e-03,-1.064148029732395098e-04,-2.214109180146841150e-03
3.543165773920112921e-03,-1.065049849915865402e-04,-2.214109245953659478e-03
3.543165732762862570e-03,-1.065951670099063572e-04,-2.214109311816243528e-03
3.543165691570761191e-03,-1.066853490281970905e-04,-2.214109377734597203e-03
3.543165650343809651e-03,-1.067755310464570730e-04,-2.214109443708717467e-03
3.543165609082006215e-03,-1.068657130646847599e-04,-2.214109509738605621e-03
3.543165567785353486e-03,-1.069558950828788230e-04,-2.214109575824261232e-03
3.543165526453848860e-03,-1.070460771010379883e-04,-2.214109641965685167e-03
3.543165485087494074e-03,-1.071362591191611581e-04,-2.214109708162876559e-03
3.543165443686288260e-03,-1.072264411372473160e-04,-2.214109774415835841e-03
3.543165402250232719e-03,-1.073166231552955674e-04,-2.214109840724562146e-03
3.543165360779324848e-03,-1.074068051733050993e-04,-2.214109907089056774e-03
3.543165319273567683e-03,-1.074969871912750984e-04,-2.214109973509318426e-03
3.543165277732958623e-03,-1.075871692092049956e-04,-2.214110039985348836e-03
3.543165236157499402e-03,-1.076773512270940726e-04,-2.214110106517145835e-03
3.543165194547189586e-03,-1.077675332449418551e-04,-2.214110173104711157e-03
3.543165152902028308e-03,-1.078577152627477738e-04,-2.214110239748044370e-03
3.543165111222016869e-03,-1.079478972805114493e-04,-2.214110306447145040e-03
3.543165069507154836e-03,-1.080380792982323936e-04,-2.214110373202013166e-03
3.543165027757441340e-03,-1.081282613159102545e-04,-2.214110440012648749e-03
3.543164985972877684e-03,-1.082184433335447337e-04,-2.214110506879052222e-03
3.543164944153462566e-03,-1.083086253511354654e-04,-2.214110573801224020e-03
3.543164902299197720e-03,-1.083988073686822056e-04,-2.214110640779162406e-03
3.543164860410081413e-03,-1.084889893861846425e-04,-2.214110707812869117e-03
3.543164818486114510e-03,-1.085791714036426001e-04,-2.214110774902343284e-03
3.543164776527296146e-03,-1.086693534210558072e-04,-2.214110842047585775e-03
3.543164734533628055e-03,-1.087595354384240741e-04,-2.214110909248595289e-03
3.543164692505109369e-03,-1.088497174557472383e-04,-2.214110976505372259e-03
3.543164650441738787e-03,-1.089398994730251098e-04,-2.214111043817917120e-03
3.543164608343517610e-03,-1.090300814902575533e-04,-2.214111111186230305e-03
3.543164566210445839e-03,-1.091202635074444062e-04,-2.214111178610310513e-03
3.543164524042523907e-03,-1.092104455245855192e-04,-2.214111246090158178e-03
3.543164481839750513e-03,-1.093006275416808382e-04,-2.214111313625773732e-03
3.543164439602125657e-03,-1.093908095587301329e-04,-2.214111381217157178e-03
3.543164397329651508e-03,-1.094809915757334032e-04,-2.214111448864308079e-03
3.543164355022325462e-03,-1.095711735926904729e-04,-2.214111516567226438e-03
3.543164312680149256e-03,-1.096613556096012878e-04,-2.214111584325912686e-03
3.543164270303122022e-03,-1.097515376264657531e-04,-2.214111652140366825e-03
3.543164227891243759e-03,-1.098417196432837739e-04,-2.214111720010587987e-03
3.543164185444514468e-03,-1.099319016600552824e-04,-2.214111787936577473e-03
3.543164142962935016e-03,-1.100220836767802244e-04,-2.214111855918333548e-03
3.543164100446503668e-03,-1.101122656934584780e-04,-2.214111923955858381e-03
3.543164057895223026e-03,-1.102024477100900160e-04,-2.214111992049150237e-03
3.543164015309090923e-03,-1.102926297266747300e-04,-2.214112060198209549e-03
3.543163972688107358e-03,-1.103828117432125794e-04,-2.214112128403037186e-03
3.543163930032272764e-03,-1.104729937597035235e-04,-2.214112196663631845e-03
3.543163887341588443e-03,-1.105631757761474946e-04,-2.214112264979994395e-03
3.543163844616052660e-03,-1.106533577925443977e-04,-2.214112333352124401e-03
3.543163801855666283e-03,-1.107435398088942193e-04,-2.214112401780022298e-03
3.543163759060428443e-03,-1.108337218251969188e-04,-2.214112470263687217e-03
3.543163716230340009e-03,-1.109239038414524284e-04,-2.214112538803120461e-03
3.543163673365401414e-03,-1.110140858576606396e-04,-2.214112607398321161e-03
3.543163630465610489e-03,-1.111042678738216204e-04,-2.214112676049289751e-03
3.543163587530970705e-03,-1.111944498899352079e-04,-2.214112744756025798e-03
3.543163544561479025e-03,-1.112846319060014293e-04,-2.214112813518528868e-03
3.543163501557136316e-03,-1.113748139220202305e-04,-2.214112882336799829e-03
3.543163458517942579e-03,-1.114649959379915300e-04,-2.214112951210838245e-03
3.543163415443898682e-03,-1.115551779539153144e-04,-2.214113020140644553e-03
3.543163372335002888e-03,-1.116453599697915159e-04,-2.214113089126218750e-03
3.543163329191256934e-03,-1.117355419856201073e-04,-2.214113158167559537e-03
3.543163286012659952e-03,-1.118257240014010616e-04,-2.214113227264669515e-03
3.543163242799211941e-03,-1.119159060171343110e-04,-2.214113296417545215e-03
3.543163199550912901e-03,-1.120060880328198284e-04,-2.214113365626190107e-03
3.543163156267763268e-03,-1.120962700484575461e-04,-2.214113434890601587e-03
3.543163112949763039e-03,-1.121864520640474233e-04,-2.214113504210780958e-03
3.543163069596910481e-03,-1.122766340795894330e-04,-2.214113573586728220e-03
3.543163026209208196e-03,-1.123668160950836022e-04,-2.214113643018442937e-03
3.543162982786655316e-03,-1.124569981105297820e-04,-2.214113712505925112e-03
3.543162939329250541e-03,-1.125471801259279452e-04,-2.214113782049174743e-03
3.543162895836995605e-03,-1.126373621412781189e-04,-2.214113851648192265e-03
3.543162852309889206e-03,-1.127275441565802082e-04,-2.214113921302976809e-03
3.543162808747932213e-03,-1.128177261718342131e-04,-2.214113991013529244e-03
3.543162765151124192e-03,-1.129079081870400659e-04,-2.214114060779849569e-03
3.543162721519465142e-03,-1.129980902021977124e-04,-2.214114130601937350e-03
3.543162677852955498e-03,-1.130882722173071390e-04,-2.214114200479792155e-03
3.543162634151595259e-03,-1.131784542323683050e-04,-2.214114270413414850e-03
3.543162590415383124e-03,-1.132686362473811427e-04,-2.214114340402805435e-03
3.543162546644319962e-03,-1.133588182623456792e-04,-2.214114410447963477e-03
3.543162502838406204e-03,-1.134490002772618332e-04,-2.214114480548888975e-03
3.543162458997641852e-03,-1.135391822921295234e-04,-2.214114550705581063e-03
3.543162415122026038e-03,-1.136293643069487768e-04,-2.214114620918042342e-03
3.543162371211560063e-03,-1.137195463217195257e-04,-2.214114691186270210e-03
3.543162327266242626e-03,-1.138097283364417701e-04,-2.214114761510265969e-03
3.543162283286073726e-03,-1.138999103511153610e-04,-2.214114831890029184e-03
3.543162239271053799e-03,-1.139900923657403932e-04,-2.214114902325559856e-03
3.543162195221183711e-03,-1.140802743803167582e-04,-2.214114972816858418e-03
3.543162151136462594e-03,-1.141704563948444154e-04,-2.214115043363924003e-03
3.543162107016890449e-03,-1.142606384093233378e-04,-2.214115113966757479e-03
3.543162062862466842e-03,-1.143508204237534982e-04,-2.214115184625358411e-03
3.543162018673192640e-03,-1.144410024381348559e-04,-2.214115255339726800e-03
3.543161974449067411e-03,-1.145311844524673432e-04,-2.214115326109862645e-03
3.543161930190090719e-03,-1.146213664667509330e-04,-2.214115396935765947e-03
3.543161885896263866e-03,-1.147115484809856117e-04,-2.214115467817437139e-03
3.543161841567585551e-03,-1.148017304951713387e-04,-2.214115538754875788e-03
3.543161797204055774e-03,-1.148919125093080462e-04,-2.214115609748081893e-03
3.543161752805675836e-03,-1.149820945233957206e-04,-2.214115680797055889e-03
3.543161708372444003e-03,-1.150722765374342943e-04,-2.214115751901796474e-03
3.543161663904362008e-03,-1.151624585514237942e-04,-2.214115823062305383e-03
3.543161619401428552e-03,-1.152526405653640714e-04,-2.214115894278581315e-03
3.543161574863643633e-03,-1.153428225792551800e-04,-2.214115965550624704e-03
3.543161530291008554e-03,-1.154330045930970929e-04,-2.214116036878436417e-03
3.543161485683522446e-03,-1.155231866068896882e-04,-2.214116108262014718e-03
3.543161441041184877e-03,-1.156133686206329794e-04,-2.214116179701360911e-03
3.543161396363996279e-03,-1.157035506343269122e-04,-2.214116251196474993e-03
3.543161351651956652e-03,-1.157937326479714733e-04,-2.214116322747356098e-03
3.543161306905065998e-03,-1.158839146615665676e-04,-2.214116394354004660e-03
3.543161262123324749e-03,-1.159740966751122222e-04,-2.214116466016420679e-03
3.543161217306732037e-03,-1.160642786886083695e-04,-2.214116537734605022e-03
3.543161172455287864e-03,-1.161544607020549824e-04,-2.214116609508555520e-03
3.543161127568993096e-03,-1.162446427154519794e-04,-2.214116681338274342e-03
3.543161082647847300e-03,-1.163348247287994012e-04,-2.214116753223760621e-03
3.543161037691850909e-03,-1.164250067420971260e-04,-2.214116825165014790e-03
3.543160992701002623e-03,-1.165151887553451807e-04,-2.214116897162035982e-03
3.543160947675303742e-03,-1.166053707685434841e-04,-2.214116969214824197e-03
3.543160902614753398e-03,-1.166955527816919956e-04,-2.214117041323380303e-03
3.543160857519352027e-03,-1.167857347947907014e-04,-2.214117113487704298e-03
3.543160812389099627e-03,-1.168759168078395747e-04,-2.214117185707795751e-03
3.543160767223996199e-03,-1.169660988208385475e-04,-2.214117257983653792e-03
3.543160722024043044e-03,-1.170562808337875658e-04,-2.214117330315280158e-03
3.543160676789236692e-03,-1.171464628466866294e-04,-2.214117402702673112e-03
3.543160631519580613e-03,-1.172366448595356842e-04,-2.214117475145834391e-03
3.543160586215072204e-03,-1.173268268723347030e-04,-2.214117547644763127e-03
3.543160540875714068e-03,-1.174170088850836317e-04,-2.214117620199458885e-03
3.543160495501504036e-03,-1.175071908977824567e-04,-2.214117692809922100e-03
3.543160450092442976e-03,-1.175973729104310968e-04,-2.214117765476152772e-03
3.543160404648530888e-03,-1.176875549230295518e-04,-2.214117838198151333e-03
3.543160359169767772e-03,-1.177777369355777540e-04,-2.214117910975917352e-03
3.543160313656153193e-03,-1.178679189480757035e-04,-2.214117983809449960e-03
3.543160268107688020e-03,-1.179581009605233053e-04,-2.214118056698750892e-03
3.543160222524371385e-03,-1.180482829729205595e-04,-2.214118129643818846e-03
3.543160176906203288e-03,-1.181384649852674796e-04,-2.214118202644654691e-03
3.543160131253185463e-03,-1.182286469975639030e-04,-2.214118275701257559e-03
3.543160085565314876e-03,-1.183188290098098703e-04,-2.214118348813627884e-03
3.543160039842593260e-03,-1.184090110220053545e-04,-2.214118421981765665e-03
3.543159994085021483e-03,-1.184991930341502877e-04,-2.214118495205671770e-03
3.543159948292598244e-03,-1.185893750462446293e-04,-2.214118568485344465e-03
3.543159902465323544e-03,-1.186795570582883523e-04,-2.214118641820784182e-03
3.543159856603197381e-03,-1.187697390702813753e-04,-2.214118715211992224e-03
3.543159810706221057e-03,-1.188599210822237389e-04,-2.214118788658967288e-03
3.543159764774392838e-03,-1.189501030941153618e-04,-2.214118862161709375e-03
3.543159718807714024e-03,-1.190402851059562035e-04,-2.214118935720219353e-03
3.543159672806183314e-03,-1.191304671177462231e-04,-2.214119009334496787e-03
3.543159626769802010e-03,-1.192206491294854073e-04,-2.214119083004541678e-03
3.543159580698569677e-03,-1.193108311411736881e-04,-2.214119156730353592e-03
3.543159534592485883e-03,-1.194010131528110114e-04,-2.214119230511933829e-03
3.543159488451551060e-03,-1.194911951643974179e-04,-2.214119304349280656e-03
3.543159442275764775e-03,-1.195813771759327720e-04,-2.214119378242394506e-03
3.543159396065127462e-03,-1.196715591874171009e-04,-2.214119452191276680e-03
3.543159349819638686e-03,-1.197617411988503367e-04,-2.214119526195925444e-03
3.543159303539298883e-03,-1.198519232102324524e-04,-2.214119600256342531e-03
3.543159257224107617e-03,-1.199421052215634209e-04,-2.214119674372526641e-03
3.543159210874065757e-03,-1.200322872328431608e-04,-2.214119748544478208e-03
3.543159164489172435e-03,-1.201224692440716721e-04,-2.214119822772196797e-03
3.543159118069428085e-03,-1.202126512552489142e-04,-2.214119897055682844e-03
3.543159071614832272e-03,-1.203028332663748330e-04,-2.214119971394936780e-03
3.543159025125385431e-03,-1.203930152774494147e-04,-2.214120045789957306e-03
3.543158978601087129e-03,-1.204831972884725917e-04,-2.214120120240746156e-03
3.543158932041937798e-03,-1.205733792994443505e-04,-2.214120194747302463e-03
3.543158885447937004e-03,-1.206635613103645960e-04,-2.214120269309625792e-03
3.543158838819085183e-03,-1.207537433212333691e-04,-2.214120343927715711e-03
3.543158792155382333e-03,-1.208439253320506019e-04,-2.214120418601573520e-03
3.543158745456828455e-03,-1.209341073428161996e-04,-2.214120493331199653e-03
3.543158698723422682e-03,-1.210242893535301892e-04,-2.214120568116591942e-03
3.543158651955165880e-03,-1.211144713641925573e-04,-2.214120642957752121e-03
3.543158605152057616e-03,-1.212046533748031954e-04,-2.214120717854679756e-03
3.543158558314097890e-03,-1.212948353853621035e-04,-2.214120792807374415e-03
3.543158511441287569e-03,-1.213850173958692409e-04,-2.214120867815836530e-03
3.543158464533626220e-03,-1.214751994063245535e-04,-2.214120942880066101e-03
3.543158417591112976e-03,-1.215653814167280141e-04,-2.214121018000063130e-03
3.543158370613748269e-03,-1.216555634270795821e-04,-2.214121093175827181e-03
3.543158323601532968e-03,-1.217457454373792032e-04,-2.214121168407359123e-03
3.543158276554466204e-03,-1.218359274476268504e-04,-2.214121243694657654e-03
3.543158229472548413e-03,-1.219261094578224966e-04,-2.214121319037724508e-03
3.543158182355778726e-03,-1.220162914679661146e-04,-2.214121394436557953e-03
3.543158135204158010e-03,-1.221064734780576502e-04,-2.214121469891159721e-03
3.543158088017687134e-03,-1.221966554880970222e-04,-2.214121545401527644e-03
3.543158040796363061e-03,-1.222868374980842440e-04,-2.214121620967663458e-03
3.543157993540188393e-03,-1.223770195080192615e-04,-2.214121696589566295e-03
3.543157946249163130e-03,-1.224672015179020476e-04,-2.214121772267237023e-03
3.543157898923285972e-03,-1.225573835277325480e-04,-2.214121848000674773e-03
3.543157851562556918e-03,-1.226475655375107627e-04,-2.214121923789879546e-03
3.543157804166977703e-03,-1.227377475472365563e-04,-2.214121999634852209e-03
3.543157756736547027e-03,-1.228279295569100101e-04,-2.214122075535591896e-03
3.543157709271264888e-03,-1.229181115665310155e-04,-2.214122151492099039e-03
3.543157661771130854e-03,-1.230082935760995456e-04,-2.214122227504374072e-03
3.543157614236145791e-03,-1.230984755856155731e-04,-2.214122303572415695e-03
3.543157566666309700e-03,-1.231886575950790711e-04,-2.214122379696224340e-03
3.543157519061622147e-03,-1.232788396044899582e-04,-2.214122455875800876e-03
3.543157471422083132e-03,-1.233690216138482072e-04,-2.214122532111144001e-03
3.543157423747692655e-03,-1.234592036231538454e-04,-2.214122608402255450e-03
3.543157376038451583e-03,-1.235493856324067371e-04,-2.214122684749133922e-03
3.543157328294358616e-03,-1.236395676416068823e-04,-2.214122761151780285e-03
3.543157280515414186e-03,-1.237297496507543083e-04,-2.214122837610192369e-03
3.543157232701618295e-03,-1.238199316598488251e-04,-2.214122914124372777e-03
3.543157184852971809e-03,-1.239101136688905414e-04,-2.214122990694320642e-03
3.543157136969473427e-03,-1.240002956778793756e-04,-2.214123067320035530e-03
3.543157089051124017e-03,-1.240904776868152466e-04,-2.214123144001517440e-03
3.543157041097922712e-03,-1.241806596956981272e-04,-2.214123220738766808e-03
3.543156993109870378e-03,-1.242708417045280175e-04,-2.214123297531783632e-03
3.543156945086965715e-03,-1.243610237133048631e-04,-2.214123374380567912e-03
3.543156897029210890e-03,-1.244512057220286370e-04,-2.214123451285119216e-03
3.543156848936604170e-03,-1.245413877306993122e-04,-2.214123528245438410e-03
3.543156800809147289e-03,-1.246315697393167530e-04,-2.214123605261523759e-03
3.543156752646837646e-03,-1.247217517478810137e-04,-2.214123682333376999e-03
3.543156704449677407e-03,-1.248119337563920401e-04,-2.214123759460997695e-03
3.543156656217664405e-03,-1.249021157648497779e-04,-2.214123836644385415e-03
3.543156607950801243e-03,-1.249922977732542272e-04,-2.214123913883540590e-03
3.543156559649086185e-03,-1.250824797816052795e-04,-2.214123991178462789e-03
3.543156511312520098e-03,-1.251726617899029620e-04,-2.214124068529152878e-03
3.543156462941102550e-03,-1.252628437981472204e-04,-2.214124145935609123e-03
3.543156414534833539e-03,-1.253530258063379464e-04,-2.214124223397833692e-03
3.543156366093713067e-03,-1.254432078144752211e-04,-2.214124300915824850e-03
3.543156317617741132e-03,-1.255333898225589363e-04,-2.214124378489583465e-03
3.543156269106917736e-03,-1.256235718305890648e-04,-2.214124456119109970e-03
3.543156220561242877e-03,-1.257137538385655524e-04,-2.214124533804403064e-03
3.543156171980716557e-03,-1.258039358464883720e-04,-2.214124611545463181e-03
3.543156123365339642e-03,-1.258941178543574965e-04,-2.214124689342290755e-03
3.543156074715110397e-03,-1.259842998621728987e-04,-2.214124767194885351e-03
3.543156026030029691e-03,-1.260744818699344974e-04,-2.214124845103248272e-03
3.543155977310097956e-03,-1.261646638776422655e-04,-2.214124923067377348e-03
3.543155928555314759e-03,-1.262548458852962030e-04,-2.214125001087274315e-03
3.543155879765679667e-03,-1.263450278928962285e-04,-2.214125079162937871e-03
3.543155830941193980e-03,-1.264352099004423420e-04,-2.214125157294368883e-03
3.543155782081855963e-03,-1.265253919079344894e-04,-2.214125235481567786e-03
3.543155733187666485e-03,-1.266155739153725622e-04,-2.214125313724533278e-03
3.543155684258625978e-03,-1.267057559227566146e-04,-2.214125392023266227e-03
3.543155635294734443e-03,-1.267959379300865924e-04,-2.214125470377766199e-03
3.543155586295990145e-03,-1.268861199373624415e-04,-2.214125548788033627e-03
3.543155537262396119e-03,-1.269763019445841075e-04,-2.214125627254068512e-03
3.543155488193948897e-03,-1.270664839517516177e-04,-2.214125705775870420e-03
3.543155439090651081e-03,-1.271566659588648364e-04,-2.214125784353438917e-03
3.543155389952501802e-03,-1.272468479659237908e-04,-2.214125862986775304e-03
3.543155340779500194e-03,-1.273370299729283995e-04,-2.214125941675878714e-03
3.543155291571647991e-03,-1.274272119798786898e-04,-2.214126020420749581e-03
3.543155242328943893e-03,-1.275173939867745802e-04,-2.214126099221387471e-03
3.543155193051388766e-03,-1.276075759936160165e-04,-2.214126178077792818e-03
3.543155143738981744e-03,-1.276977580004029988e-04,-2.214126256989964753e-03
3.543155094391723693e-03,-1.277879400071354457e-04,-2.214126335957904580e-03
3.543155045009613313e-03,-1.278781220138133572e-04,-2.214126414981610561e-03
3.543154995592651905e-03,-1.279683040204366521e-04,-2.214126494061084867e-03
3.543154946140839034e-03,-1.280584860270053574e-04,-2.214126573196326195e-03
3.543154896654174702e-03,-1.281486680335194189e-04,-2.214126652387333680e-03
3.543154847132658908e-03,-1.282388500399787282e-04,-2.214126731634109488e-03
3.543154797576291218e-03,-1.283290320463833123e-04,-2.214126810936652319e-03
3.543154747985071632e-03,-1.284192140527330901e-04,-2.214126890294962173e-03
3.543154698359001018e-03,-1.285093960590280614e-04,-2.214126969709039050e-03
3.543154648698078942e-03,-1.285995780652681450e-04,-2.214127049178883384e-03
3.543154599002304971e-03,-1.286897600714533680e-04,-2.214127128704495174e-03
3.543154549271679971e-03,-1.287799420775836490e-04,-2.214127208285873553e-03
3.543154499506203075e-03,-1.288701240836589610e-04,-2.214127287923018956e-03
3.543154449705874717e-03,-1.289603060896792768e-04,-2.214127367615931815e-03
3.543154399870694464e-03,-1.290504880956445152e-04,-2.214127447364611697e-03
3.543154350000663182e-03,-1.291406701015546761e-04,-2.214127527169059036e-03
3.543154300095780005e-03,-1.292308521074097053e-04,-2.214127607029273831e-03
3.543154250156046233e-03,-1.293210341132095486e-04,-2.214127686945255215e-03
3.543154200181459698e-03,-1.294112161189542060e-04,-2.214127766917004490e-03
3.543154150172021268e-03,-1.295013981246436233e-04,-2.214127846944519921e-03
3.543154100127731809e-03,-1.295915801302777192e-04,-2.214127927027803241e-03
3.543154050048591755e-03,-1.296817621358565479e-04,-2.214128007166853151e-03
3.543153999934598938e-03,-1.297719441413799739e-04,-2.214128087361670952e-03
3.543153949785755093e-03,-1.298621261468480513e-04,-2.214128167612255341e-03
3.543153899602058485e-03,-1.299523081522606447e-04,-2.214128247918606754e-03
3.543153849383511283e-03,-1.300424901576178083e-04,-2.214128328280725623e-03
3.543153799130112618e-03,-1.301326721629194336e-04,-2.214128408698611949e-03
3.543153748841862058e-03,-1.302228541681655207e-04,-2.214128489172264864e-03
3.543153698518760036e-03,-1.303130361733559610e-04,-2.214128569701685235e-03
3.543153648160806118e-03,-1.304032181784908360e-04,-2.214128650286872630e-03
3.543153597768000738e-03,-1.304934001835700373e-04,-2.214128730927827048e-03
3.543153547340343462e-03,-1.305835821885934834e-04,-2.214128811624548488e-03
3.543153496877834725e-03,-1.306737641935612015e-04,-2.214128892377037385e-03
3.543153446380474525e-03,-1.307639461984731917e-04,-2.214128973185293305e-03
3.543153395848262863e-03,-1.308541282033293725e-04,-2.214129054049316248e-03
3.543153345281198872e-03,-1.309443102081295815e-04,-2.214129134969106214e-03
3.543153294679284287e-03,-1.310344922128739811e-04,-2.214129215944663637e-03
3.543153244042516505e-03,-1.311246742175624087e-04,-2.214129296975988082e-03
3.543153193370898995e-03,-1.312148562221948644e-04,-2.214129378063079551e-03
3.543153142664428722e-03,-1.313050382267713211e-04,-2.214129459205938042e-03
3.543153091923106120e-03,-1.313952202312916975e-04,-2.214129540404563990e-03
3.543153041146932924e-03,-1.314854022357560205e-04,-2.214129621658956527e-03
3.543152990335907832e-03,-1.315755842401642090e-04,-2.214129702969116955e-03
3.543152939490031277e-03,-1.316657662445162088e-04,-2.214129784335043972e-03
3.543152888609302394e-03,-1.317559482488120197e-04,-2.214129865756738012e-03
3.543152837693722915e-03,-1.318461302530515606e-04,-2.214129947234199508e-03
3.543152786743290674e-03,-1.319363122572348313e-04,-2.214130028767427160e-03
3.543152735758006971e-03,-1.320264942613618049e-04,-2.214130110356422269e-03
3.543152684737871806e-03,-1.321166762654323458e-04,-2.214130192001184834e-03
3.543152633682885178e-03,-1.322068582694465623e-04,-2.214130273701714856e-03
3.543152582593046655e-03,-1.322970402734043461e-04,-2.214130355458011467e-03
3.543152531468356670e-03,-1.323872222773055888e-04,-2.214130437270075535e-03
3.543152480308814790e-03,-1.324774042811503445e-04,-2.214130519137905758e-03
3.543152429114421013e-03,-1.325675862849385591e-04,-2.214130601061503872e-03
3.543152377885175341e-03,-1.326577682886701784e-04,-2.214130683040869008e-03
3.543152326621078207e-03,-1.327479502923451752e-04,-2.214130765076001168e-03
3.543152275322129612e-03,-1.328381322959634953e-04,-2.214130847166899917e-03
3.543152223988329120e-03,-1.329283142995250845e-04,-2.214130929313566556e-03
3.543152172619676299e-03,-1.330184963030299429e-04,-2.214131011515999350e-03
3.543152121216172883e-03,-1.331086783064780433e-04,-2.214131093774200035e-03
3.543152069777816705e-03,-1.331988603098693043e-04,-2.214131176088166876e-03
3.543152018304609064e-03,-1.332890423132037261e-04,-2.214131258457901173e-03
3.543151966796549961e-03,-1.333792243164812002e-04,-2.214131340883402493e-03
3.543151915253638529e-03,-1.334694063197017807e-04,-2.214131423364671270e-03
3.543151863675876069e-03,-1.335595883228653323e-04,-2.214131505901707070e-03
3.543151812063261279e-03,-1.336497703259719090e-04,-2.214131588494509893e-03
3.543151760415795461e-03,-1.337399523290214295e-04,-2.214131671143079304e-03
3.543151708733477748e-03,-1.338301343320138397e-04,-2.214131753847415739e-03
3.543151657016308138e-03,-1.339203163349491667e-04,-2.214131836607519631e-03
3.543151605264286200e-03,-1.340104983378272478e-04,-2.214131919423390545e-03
3.543151553477413233e-03,-1.341006803406481914e-04,-2.214132002295028483e-03
3.543151501655687936e-03,-1.341908623434118349e-04,-2.214132085222433009e-03
3.543151449799111178e-03,-1.342810443461182597e-04,-2.214132168205604993e-03
3.543151397907682090e-03,-1.343712263487673031e-04,-2.214132251244543565e-03
3.543151345981401974e-03,-1.344614083513589922e-04,-2.214132334339250028e-03
3.543151294020269529e-03,-1.345515903538933270e-04,-2.214132417489723080e-03
3.543151242024286055e-03,-1.346417723563701448e-04,-2.214132500695962288e-03
3.543151189993449818e-03,-1.347319543587895271e-04,-2.214132583957969386e-03
3.543151137927762553e-03,-1.348221363611513924e-04,-2.214132667275743940e-03
3.543151085827222959e-03,-1.349123183634557137e-04,-2.214132750649284651e-03
3.543151033691831469e-03,-1.350025003657024097e-04,-2.214132834078592817e-03
3.543150981521588517e-03,-1.350926823678915345e-04,-2.214132917563668007e-03
3.543150929316493235e-03,-1.351828643700229526e-04,-2.214133001104509786e-03
3.543150877076547359e-03,-1.352730463720966641e-04,-2.214133084701119022e-03
3.543150824801748720e-03,-1.353632283741125876e-04,-2.214133168353494847e-03
3.543150772492097752e-03,-1.354534103760708045e-04,-2.214133252061638128e-03
3.543150720147595755e-03,-1.355435923779711250e-04,-2.214133335825547999e-03
3.543150667768241863e-03,-1.356337743798136303e-04,-2.214133419645225326e-03
3.543150615354035641e-03,-1.357239563815982122e-04,-2.214133503520668809e-03
3.543150562904978391e-03,-1.358141383833248706e-04,-2.214133587451880183e-03
3.543150510421068378e-03,-1.359043203849935513e-04,-2.214133671438858145e-03
3.543150457902306903e-03,-1.359945023866042000e-04,-2.214133755481603131e-03
3.543150405348693532e-03,-1.360846843881568168e-04,-2.214133839580115139e-03
3.543150352760229133e-03,-1.361748663896513204e-04,-2.214133923734394171e-03
3.543150300136911970e-03,-1.362650483910876566e-04,-2.214134007944439791e-03
3.543150247478743346e-03,-1.363552303924659066e-04,-2.214134092210252435e-03
3.543150194785721959e-03,-1.364454123937858807e-04,-2.214134176531832535e-03
3.543150142057849110e-03,-1.365355943950476332e-04,-2.214134260909179659e-03
3.543150089295125232e-03,-1.366257763962511098e-04,-2.214134345342293371e-03
3.543150036497548592e-03,-1.367159583973962293e-04,-2.214134429831173673e-03
3.543149983665120056e-03,-1.368061403984830186e-04,-2.214134514375821865e-03
3.543149930797840057e-03,-1.368963223995113966e-04,-2.214134598976236212e-03
3.543149877895707730e-03,-1.369865044004813361e-04,-2.214134683632417583e-03
3.543149824958723940e-03,-1.370766864013927828e-04,-2.214134768344366410e-03
3.543149771986887821e-03,-1.371668684022457098e-04,-2.214134853112081826e-03
3.543149718980199807e-03,-1.372570504030401169e-04,-2.214134937935564700e-03
3.543149665938660330e-03,-1.373472324037759229e-04,-2.214135022814813728e-03
3.543149612862268524e-03,-1.374374144044530736e-04,-2.214135107749829780e-03
3.543149559751024823e-03,-1.375275964050715418e-04,-2.214135192740613722e-03
3.543149506604929659e-03,-1.376177784056313276e-04,-2.214135277787163385e-03
3.543149453423982166e-03,-1.377079604061323497e-04,-2.214135362889480940e-03
3.543149400208182778e-03,-1.377981424065746079e-04,-2.214135448047565083e-03
3.543149346957531927e-03,-1.378883244069580211e-04,-2.214135533261416249e-03
3.543149293672028313e-03,-1.379785064072825351e-04,-2.214135618531034438e-03
3.543149240351672804e-03,-1.380686884075482310e-04,-2.214135703856418783e-03
3.543149186996465833e-03,-1.381588704077549193e-04,-2.214135789237571018e-03
3.543149133606406532e-03,-1.382490524079026269e-04,-2.214135874674489409e-03
3.543149080181495336e-03,-1.383392344079913811e-04,-2.214135960167175256e-03
3.543149026721732677e-03,-1.384294164080209920e-04,-2.214136045715627259e-03
3.543148973227117689e-03,-1.385195984079916223e-04,-2.214136131319846719e-03
3.543148919697651240e-03,-1.386097804079030010e-04,-2.214136216979833201e-03
3.543148866133331593e-03,-1.386999624077552907e-04,-2.214136302695586707e-03
3.543148812534160919e-03,-1.387901444075483016e-04,-2.214136388467106802e-03
3.543148758900137914e-03,-1.388803264072821151e-04,-2.214136474294393486e-03
3.543148705231263448e-03,-1.389705084069566227e-04,-2.214136560177447626e-03
3.543148651527536219e-03,-1.390606904065718244e-04,-2.214136646116268790e-03
3.543148597788957094e-03,-1.391508724061276390e-04,-2.214136732110856109e-03
3.543148544015526508e-03,-1.392410544056240664e-04,-2.214136818161211318e-03
3.543148490207243158e-03,-1.393312364050610253e-04,-2.214136904267332683e-03
3.543148436364108346e-03,-1.394214184044385429e-04,-2.214136990429221071e-03
3.543148382486121638e-03,-1.395116004037565106e-04,-2.214137076646876482e-03
