ref_accel_x (m/s^2),ref_accel_y (m/s^2),ref_accel_z (m/s^2)
0.000000000000000000e+00,-7.728464431007833800e-04,-9.794826232527723775e+00
0.000000000000000000e+00,-7.728464625678926198e-04,-9.794826233259946946e+00
0.000000000000000000e+00,-7.728464820350016426e-04,-9.794826233992171893e+00
0.000000000000000000e+00,-7.728465015021106655e-04,-9.794826234724396841e+00
0.000000000000000000e+00,-7.728465209692193631e-04,-9.794826235456620012e+00
0.000000000000000000e+00,-7.728465404363278439e-04,-9.794826236188843183e+00
0.000000000000000000e+00,-7.728465599034359994e-04,-9.794826236921066354e+00
0.000000000000000000e+00,-7.728465793705440465e-04,-9.794826237653291301e+00
0.000000000000000000e+00,-7.728465988376519852e-04,-9.794826238385512696e+00
0.000000000000000000e+00,-7.728466183047595986e-04,-9.794826239117739419e+00
0.000000000000000000e+00,-7.728466377718671036e-04,-9.794826239849964367e+00
0.000000000000000000e+00,-7.728466572389743917e-04,-9.794826240582185761e+00
0.000000000000000000e+00,-7.728466767060815715e-04,-9.794826241314410709e+00
0.000000000000000000e+00,-7.728466961731884259e-04,-9.794826242046635656e+00
0.000000000000000000e+00,-7.728467156402952804e-04,-9.794826242778858827e+00
0.000000000000000000e+00,-7.728467351074018096e-04,-9.794826243511080222e+00
0.000000000000000000e+00,-7.728467545745081220e-04,-9.794826244243306945e+00
0.000000000000000000e+00,-7.728467740416142175e-04,-9.794826244975531893e+00
0.000000000000000000e+00,-7.728467935087203131e-04,-9.794826245707755064e+00
0.000000000000000000e+00,-7.728468129758259749e-04,-9.794826246439978235e+00
0.000000000000000000e+00,-7.728468324429314199e-04,-9.794826247172201406e+00
0.000000000000000000e+00,-7.728468519100369733e-04,-9.794826247904426353e+00
0.000000000000000000e+00,-7.728468713771419847e-04,-9.794826248636649524e+00
0.000000000000000000e+00,-7.728468908442471044e-04,-9.794826249368874471e+00
0.000000000000000000e+00,-7.728469103113518989e-04,-9.794826250101099419e+00
0.000000000000000000e+00,-7.728469297784563681e-04,-9.794826250833322590e+00
0.000000000000000000e+00,-7.728469492455608374e-04,-9.794826251565547537e+00
0.000000000000000000e+00,-7.728469687126649813e-04,-9.794826252297768931e+00
0.000000000000000000e+00,-7.728469881797691253e-04,-9.794826253029993879e+00
0.000000000000000000e+00,-7.728470076468727272e-04,-9.794826253762220603e+00
0.000000000000000000e+00,-7.728470271139764374e-04,-9.794826254494443774e+00
0.000000000000000000e+00,-7.728470465810797141e-04,-9.794826255226666945e+00
0.000000000000000000e+00,-7.728470660481830991e-04,-9.794826255958890115e+00
0.000000000000000000e+00,-7.728470855152861588e-04,-9.794826256691116839e+00
0.000000000000000000e+00,-7.728471049823890018e-04,-9.794826257423340010e+00
0.000000000000000000e+00,-7.728471244494916279e-04,-9.794826258155563181e+00
0.000000000000000000e+00,-7.728471439165939287e-04,-9.794826258887788129e+00
0.000000000000000000e+00,-7.728471633836964463e-04,-9.794826259620013076e+00
0.000000000000000000e+00,-7.728471828507984219e-04,-9.794826260352234470e+00
0.000000000000000000e+00,-7.728472023179001806e-04,-9.794826261084459418e+00
0.000000000000000000e+00,-7.728472217850019393e-04,-9.794826261816687918e+00
0.000000000000000000e+00,-7.728472412521034812e-04,-9.794826262548911089e+00
0.000000000000000000e+00,-7.728472607192046978e-04,-9.794826263281132483e+00
0.000000000000000000e+00,-7.728472801863056976e-04,-9.794826264013355654e+00
0.000000000000000000e+00,-7.728472996534068058e-04,-9.794826264745582378e+00
0.000000000000000000e+00,-7.728473191205072635e-04,-9.794826265477809102e+00
0.000000000000000000e+00,-7.728473385876079380e-04,-9.794826266210030496e+00
0.000000000000000000e+00,-7.728473580547081789e-04,-9.794826266942255444e+00
0.000000000000000000e+00,-7.728473775218082029e-04,-9.794826267674478615e+00
0.000000000000000000e+00,-7.728473969889082269e-04,-9.794826268406705339e+00
0.000000000000000000e+00,-7.728474164560078172e-04,-9.794826269138928510e+00
0.000000000000000000e+00,-7.728474359231076243e-04,-9.794826269871151680e+00
0.000000000000000000e+00,-7.728474553902067810e-04,-9.794826270603376628e+00
0.000000000000000000e+00,-7.728474748573060460e-04,-9.794826271335601575e+00
0.000000000000000000e+00,-7.728474943244050942e-04,-9.794826272067826523e+00
0.000000000000000000e+00,-7.728475137915037088e-04,-9.794826272800047917e+00
0.000000000000000000e+00,-7.728475332586021065e-04,-9.794826273532274641e+00
0.000000000000000000e+00,-7.728475527257006126e-04,-9.794826274264497812e+00
0.000000000000000000e+00,-7.728475721927989019e-04,-9.794826274996722759e+00
0.000000000000000000e+00,-7.728475916598967575e-04,-9.794826275728949483e+00
0.000000000000000000e+00,-7.728476111269948299e-04,-9.794826276461172654e+00
0.000000000000000000e+00,-7.728476305940922518e-04,-9.794826277193397601e+00
0.000000000000000000e+00,-7.728476500611895653e-04,-9.794826277925618996e+00
0.000000000000000000e+00,-7.728476695282868788e-04,-9.794826278657847496e+00
0.000000000000000000e+00,-7.728476889953838670e-04,-9.794826279390070667e+00
0.000000000000000000e+00,-7.728477084624805300e-04,-9.794826280122293838e+00
0.000000000000000000e+00,-7.728477279295771930e-04,-9.794826280854518785e+00
0.000000000000000000e+00,-7.728477473966737475e-04,-9.794826281586745509e+00
0.000000000000000000e+00,-7.728477668637698684e-04,-9.794826282318970456e+00
0.000000000000000000e+00,-7.728477863308659893e-04,-9.794826283051191851e+00
0.000000000000000000e+00,-7.728478057979617849e-04,-9.794826283783416798e+00
0.000000000000000000e+00,-7.728478252650575805e-04,-9.794826284515643522e+00
0.000000000000000000e+00,-7.728478447321528340e-04,-9.794826285247866693e+00
0.000000000000000000e+00,-7.728478641992483043e-04,-9.794826285980091640e+00
0.000000000000000000e+00,-7.728478836663433410e-04,-9.794826286712314811e+00
0.000000000000000000e+00,-7.728479031334380524e-04,-9.794826287444543311e+00
0.000000000000000000e+00,-7.728479226005328722e-04,-9.794826288176764706e+00
0.000000000000000000e+00,-7.728479420676273668e-04,-9.794826288908989653e+00
0.000000000000000000e+00,-7.728479615347215361e-04,-9.794826289641212824e+00
0.000000000000000000e+00,-7.728479810018157054e-04,-9.794826290373439548e+00
0.000000000000000000e+00,-7.728480004689094410e-04,-9.794826291105664495e+00
0.000000000000000000e+00,-7.728480199360033935e-04,-9.794826291837887666e+00
0.000000000000000000e+00,-7.728480394030968039e-04,-9.794826292570114390e+00
0.000000000000000000e+00,-7.728480588701902142e-04,-9.794826293302339337e+00
0.000000000000000000e+00,-7.728480783372830825e-04,-9.794826294034562508e+00
0.000000000000000000e+00,-7.728480978043762760e-04,-9.794826294766787456e+00
0.000000000000000000e+00,-7.728481172714688190e-04,-9.794826295499014179e+00
0.000000000000000000e+00,-7.728481367385614705e-04,-9.794826296231239127e+00
0.000000000000000000e+00,-7.728481562056539050e-04,-9.794826296963460521e+00
0.000000000000000000e+00,-7.728481756727459059e-04,-9.794826297695685469e+00
0.000000000000000000e+00,-7.728481951398379068e-04,-9.794826298427913969e+00
0.000000000000000000e+00,-7.728482146069296909e-04,-9.794826299160135363e+00
0.000000000000000000e+00,-7.728482340740212581e-04,-9.794826299892360311e+00
0.000000000000000000e+00,-7.728482535411127169e-04,-9.794826300624587034e+00
0.000000000000000000e+00,-7.728482730082039589e-04,-9.794826301356811982e+00
0.000000000000000000e+00,-7.728482924752947672e-04,-9.794826302089036929e+00
0.000000000000000000e+00,-7.728483119423855754e-04,-9.794826302821260100e+00
0.000000000000000000e+00,-7.728483314094762753e-04,-9.794826303553485047e+00
0.000000000000000000e+00,-7.728483508765667583e-04,-9.794826304285709995e+00
0.000000000000000000e+00,-7.728483703436569161e-04,-9.794826305017934942e+00
0.000000000000000000e+00,-7.728483898107468570e-04,-9.794826305750159889e+00
0.000000000000000000e+00,-7.728484092778367979e-04,-9.794826306482383060e+00
0.000000000000000000e+00,-7.728484287449264136e-04,-9.794826307214609784e+00
0.000000000000000000e+00,-7.728484482120157040e-04,-9.794826307946836508e+00
0.000000000000000000e+00,-7.728484676791049944e-04,-9.794826308679059679e+00
0.000000000000000000e+00,-7.728484871461940679e-04,-9.794826309411286402e+00
0.000000000000000000e+00,-7.728485066132830331e-04,-9.794826310143511350e+00
0.000000000000000000e+00,-7.728485260803716729e-04,-9.794826310875734521e+00
0.000000000000000000e+00,-7.728485455474600960e-04,-9.794826311607957692e+00
0.000000000000000000e+00,-7.728485650145483022e-04,-9.794826312340186192e+00
0.000000000000000000e+00,-7.728485844816362915e-04,-9.794826313072411139e+00
0.000000000000000000e+00,-7.728486039487242809e-04,-9.794826313804634310e+00
0.000000000000000000e+00,-7.728486234158120534e-04,-9.794826314536861034e+00
0.000000000000000000e+00,-7.728486428828995006e-04,-9.794826315269085981e+00
0.000000000000000000e+00,-7.728486623499867311e-04,-9.794826316001310929e+00
0.000000000000000000e+00,-7.728486818170739615e-04,-9.794826316733537652e+00
0.000000000000000000e+00,-7.728487012841608666e-04,-9.794826317465760823e+00
0.000000000000000000e+00,-7.728487207512475549e-04,-9.794826318197987547e+00
0.000000000000000000e+00,-7.728487402183339180e-04,-9.794826318930212494e+00
0.000000000000000000e+00,-7.728487596854204979e-04,-9.794826319662435665e+00
0.000000000000000000e+00,-7.728487791525065357e-04,-9.794826320394660613e+00
0.000000000000000000e+00,-7.728487986195923566e-04,-9.794826321126887336e+00
0.000000000000000000e+00,-7.728488180866781776e-04,-9.794826321859112284e+00
0.000000000000000000e+00,-7.728488375537638901e-04,-9.794826322591335455e+00
0.000000000000000000e+00,-7.728488570208491689e-04,-9.794826323323562178e+00
0.000000000000000000e+00,-7.728488764879343394e-04,-9.794826324055787126e+00
0.000000000000000000e+00,-7.728488959550192930e-04,-9.794826324788010297e+00
0.000000000000000000e+00,-7.728489154221040297e-04,-9.794826325520237020e+00
0.000000000000000000e+00,-7.728489348891886580e-04,-9.794826326252461968e+00
0.000000000000000000e+00,-7.728489543562729611e-04,-9.794826326984686915e+00
0.000000000000000000e+00,-7.728489738233572642e-04,-9.794826327716913639e+00
0.000000000000000000e+00,-7.728489932904411336e-04,-9.794826328449136810e+00
0.000000000000000000e+00,-7.728490127575250029e-04,-9.794826329181365310e+00
0.000000000000000000e+00,-7.728490322246085471e-04,-9.794826329913590257e+00
0.000000000000000000e+00,-7.728490516916920912e-04,-9.794826330645813428e+00
0.000000000000000000e+00,-7.728490711587752016e-04,-9.794826331378040152e+00
0.000000000000000000e+00,-7.728490906258583121e-04,-9.794826332110265099e+00
0.000000000000000000e+00,-7.728491100929409888e-04,-9.794826332842490046e+00
0.000000000000000000e+00,-7.728491295600238824e-04,-9.794826333574716770e+00
0.000000000000000000e+00,-7.728491490271061255e-04,-9.794826334306939941e+00
0.000000000000000000e+00,-7.728491684941883686e-04,-9.794826335039168441e+00
0.000000000000000000e+00,-7.728491879612703949e-04,-9.794826335771391612e+00
0.000000000000000000e+00,-7.728492074283523127e-04,-9.794826336503616560e+00
0.000000000000000000e+00,-7.728492268954340137e-04,-9.794826337235843283e+00
0.000000000000000000e+00,-7.728492463625153894e-04,-9.794826337968068231e+00
0.000000000000000000e+00,-7.728492658295967651e-04,-9.794826338700293178e+00
0.000000000000000000e+00,-7.728492852966779240e-04,-9.794826339432519902e+00
0.000000000000000000e+00,-7.728493047637586492e-04,-9.794826340164744849e+00
0.000000000000000000e+00,-7.728493242308393744e-04,-9.794826340896971573e+00
0.000000000000000000e+00,-7.728493436979198827e-04,-9.794826341629194744e+00
0.000000000000000000e+00,-7.728493631650002827e-04,-9.794826342361419691e+00
0.000000000000000000e+00,-7.728493826320804658e-04,-9.794826343093648191e+00
0.000000000000000000e+00,-7.728494020991603236e-04,-9.794826343825871362e+00
0.000000000000000000e+00,-7.728494215662399646e-04,-9.794826344558098086e+00
0.000000000000000000e+00,-7.728494410333193888e-04,-9.794826345290321257e+00
0.000000000000000000e+00,-7.728494605003989213e-04,-9.794826346022547980e+00
0.000000000000000000e+00,-7.728494799674780202e-04,-9.794826346754774704e+00
0.000000000000000000e+00,-7.728494994345570107e-04,-9.794826347486997875e+00
0.000000000000000000e+00,-7.728495189016357843e-04,-9.794826348219224599e+00
0.000000000000000000e+00,-7.728495383687142327e-04,-9.794826348951451322e+00
0.000000000000000000e+00,-7.728495578357926811e-04,-9.794826349683676270e+00
0.000000000000000000e+00,-7.728495773028708042e-04,-9.794826350415901217e+00
0.000000000000000000e+00,-7.728495967699488189e-04,-9.794826351148124388e+00
0.000000000000000000e+00,-7.728496162370265083e-04,-9.794826351880354665e+00
0.000000000000000000e+00,-7.728496357041041978e-04,-9.794826352612579612e+00
0.000000000000000000e+00,-7.728496551711815619e-04,-9.794826353344804559e+00
0.000000000000000000e+00,-7.728496746382589261e-04,-9.794826354077029507e+00
0.000000000000000000e+00,-7.728496941053357482e-04,-9.794826354809258007e+00
0.000000000000000000e+00,-7.728497135724124618e-04,-9.794826355541481178e+00
0.000000000000000000e+00,-7.728497330394892839e-04,-9.794826356273706125e+00
0.000000000000000000e+00,-7.728497525065655639e-04,-9.794826357005932849e+00
0.000000000000000000e+00,-7.728497719736418439e-04,-9.794826357738157796e+00
0.000000000000000000e+00,-7.728497914407176901e-04,-9.794826358470384520e+00
0.000000000000000000e+00,-7.728498109077936449e-04,-9.794826359202607691e+00
0.000000000000000000e+00,-7.728498303748694911e-04,-9.794826359934836191e+00
0.000000000000000000e+00,-7.728498498419450122e-04,-9.794826360667062914e+00
0.000000000000000000e+00,-7.728498693090198827e-04,-9.794826361399287862e+00
0.000000000000000000e+00,-7.728498887760950785e-04,-9.794826362131512809e+00
0.000000000000000000e+00,-7.728499082431700574e-04,-9.794826362863737756e+00
0.000000000000000000e+00,-7.728499277102447110e-04,-9.794826363595966257e+00
0.000000000000000000e+00,-7.728499471773191479e-04,-9.794826364328191204e+00
0.000000000000000000e+00,-7.728499666443934763e-04,-9.794826365060416151e+00
0.000000000000000000e+00,-7.728499861114675878e-04,-9.794826365792642875e+00
0.000000000000000000e+00,-7.728500055785415910e-04,-9.794826366524869599e+00
0.000000000000000000e+00,-7.728500250456150520e-04,-9.794826367257092770e+00
0.000000000000000000e+00,-7.728500445126887299e-04,-9.794826367989319493e+00
0.000000000000000000e+00,-7.728500639797619741e-04,-9.794826368721544441e+00
0.000000000000000000e+00,-7.728500834468352183e-04,-9.794826369453771164e+00
0.000000000000000000e+00,-7.728501029139080289e-04,-9.794826370185997888e+00
0.000000000000000000e+00,-7.728501223809807310e-04,-9.794826370918222835e+00
0.000000000000000000e+00,-7.728501418480532162e-04,-9.794826371650449559e+00
0.000000000000000000e+00,-7.728501613151255931e-04,-9.794826372382674506e+00
0.000000000000000000e+00,-7.728501807821977531e-04,-9.794826373114899454e+00
0.000000000000000000e+00,-7.728502002492696962e-04,-9.794826373847126177e+00
0.000000000000000000e+00,-7.728502197163413141e-04,-9.794826374579354678e+00
0.000000000000000000e+00,-7.728502391834131489e-04,-9.794826375311577848e+00
0.000000000000000000e+00,-7.728502586504845499e-04,-9.794826376043806349e+00
0.000000000000000000e+00,-7.728502781175556257e-04,-9.794826376776031296e+00
0.000000000000000000e+00,-7.728502975846267015e-04,-9.794826377508258020e+00
0.000000000000000000e+00,-7.728503170516975605e-04,-9.794826378240482967e+00
0.000000000000000000e+00,-7.728503365187679858e-04,-9.794826378972707914e+00
0.000000000000000000e+00,-7.728503559858383026e-04,-9.794826379704934638e+00
0.000000000000000000e+00,-7.728503754529086195e-04,-9.794826380437161362e+00
0.000000000000000000e+00,-7.728503949199785027e-04,-9.794826381169386309e+00
0.000000000000000000e+00,-7.728504143870483858e-04,-9.794826381901613033e+00
0.000000000000000000e+00,-7.728504338541180522e-04,-9.794826382633837980e+00
0.000000000000000000e+00,-7.728504533211876101e-04,-9.794826383366064704e+00
0.000000000000000000e+00,-7.728504727882568428e-04,-9.794826384098291427e+00
0.000000000000000000e+00,-7.728504922553257502e-04,-9.794826384830518151e+00
0.000000000000000000e+00,-7.728505117223947660e-04,-9.794826385562744875e+00
0.000000000000000000e+00,-7.728505311894633481e-04,-9.794826386294971599e+00
0.000000000000000000e+00,-7.728505506565318218e-04,-9.794826387027194770e+00
0.000000000000000000e+00,-7.728505701236000787e-04,-9.794826387759421493e+00
0.000000000000000000e+00,-7.728505895906681187e-04,-9.794826388491648217e+00
0.000000000000000000e+00,-7.728506090577359419e-04,-9.794826389223874941e+00
0.000000000000000000e+00,-7.728506285248038735e-04,-9.794826389956099888e+00
0.000000000000000000e+00,-7.728506479918711546e-04,-9.794826390688330164e+00
0.000000000000000000e+00,-7.728506674589384357e-04,-9.794826391420555112e+00
0.000000000000000000e+00,-7.728506869260055000e-04,-9.794826392152780059e+00
0.000000000000000000e+00,-7.728507063930724558e-04,-9.794826392885006783e+00
0.000000000000000000e+00,-7.728507258601391948e-04,-9.794826393617233506e+00
0.000000000000000000e+00,-7.728507453272057169e-04,-9.794826394349460230e+00
0.000000000000000000e+00,-7.728507647942719138e-04,-9.794826395081683401e+00
0.000000000000000000e+00,-7.728507842613381107e-04,-9.794826395813910125e+00
0.000000000000000000e+00,-7.728508037284039824e-04,-9.794826396546138625e+00
0.000000000000000000e+00,-7.728508231954697456e-04,-9.794826397278363572e+00
0.000000000000000000e+00,-7.728508426625352919e-04,-9.794826398010588520e+00
0.000000000000000000e+00,-7.728508621296007299e-04,-9.794826398742817020e+00
0.000000000000000000e+00,-7.728508815966658426e-04,-9.794826399475041967e+00
0.000000000000000000e+00,-7.728509010637307384e-04,-9.794826400207268691e+00
0.000000000000000000e+00,-7.728509205307955258e-04,-9.794826400939497191e+00
0.000000000000000000e+00,-7.728509399978600964e-04,-9.794826401671720362e+00
0.000000000000000000e+00,-7.728509594649245586e-04,-9.794826402403948862e+00
0.000000000000000000e+00,-7.728509789319886955e-04,-9.794826403136175585e+00
0.000000000000000000e+00,-7.728509983990528324e-04,-9.794826403868400533e+00
0.000000000000000000e+00,-7.728510178661164272e-04,-9.794826404600627257e+00
0.000000000000000000e+00,-7.728510373331801304e-04,-9.794826405332855757e+00
0.000000000000000000e+00,-7.728510568002435084e-04,-9.794826406065078928e+00
0.000000000000000000e+00,-7.728510762673067780e-04,-9.794826406797307428e+00
0.000000000000000000e+00,-7.728510957343697222e-04,-9.794826407529535928e+00
0.000000000000000000e+00,-7.728511152014327749e-04,-9.794826408261760875e+00
0.000000000000000000e+00,-7.728511346684950687e-04,-9.794826408993987599e+00
0.000000000000000000e+00,-7.728511541355575793e-04,-9.794826409726210770e+00
0.000000000000000000e+00,-7.728511736026199815e-04,-9.794826410458441046e+00
0.000000000000000000e+00,-7.728511930696819500e-04,-9.794826411190665993e+00
0.000000000000000000e+00,-7.728512125367438101e-04,-9.794826411922890941e+00
0.000000000000000000e+00,-7.728512320038054533e-04,-9.794826412655119441e+00
0.000000000000000000e+00,-7.728512514708668797e-04,-9.794826413387346165e+00
0.000000000000000000e+00,-7.728512709379281977e-04,-9.794826414119574665e+00
0.000000000000000000e+00,-7.728512904049892988e-04,-9.794826414851797836e+00
0.000000000000000000e+00,-7.728513098720500747e-04,-9.794826415584026336e+00
0.000000000000000000e+00,-7.728513293391108506e-04,-9.794826416316254836e+00
0.000000000000000000e+00,-7.728513488061714096e-04,-9.794826417048478007e+00
0.000000000000000000e+00,-7.728513682732317518e-04,-9.794826417780706507e+00
0.000000000000000000e+00,-7.728513877402917688e-04,-9.794826418512929678e+00
0.000000000000000000e+00,-7.728514072073515689e-04,-9.794826419245159954e+00
0.000000000000000000e+00,-7.728514266744113690e-04,-9.794826419977384901e+00
0.000000000000000000e+00,-7.728514461414709522e-04,-9.794826420709609849e+00
0.000000000000000000e+00,-7.728514656085302102e-04,-9.794826421441838349e+00
0.000000000000000000e+00,-7.728514850755894682e-04,-9.794826422174065073e+00
0.000000000000000000e+00,-7.728515045426484010e-04,-9.794826422906291796e+00
0.000000000000000000e+00,-7.728515240097071168e-04,-9.794826423638520296e+00
0.000000000000000000e+00,-7.728515434767655075e-04,-9.794826424370747020e+00
0.000000000000000000e+00,-7.728515629438240065e-04,-9.794826425102971967e+00
0.000000000000000000e+00,-7.728515824108820719e-04,-9.794826425835198691e+00
0.000000000000000000e+00,-7.728516018779402457e-04,-9.794826426567427191e+00
0.000000000000000000e+00,-7.728516213449979858e-04,-9.794826427299653915e+00
0.000000000000000000e+00,-7.728516408120556175e-04,-9.794826428031878862e+00
0.000000000000000000e+00,-7.728516602791128155e-04,-9.794826428764107362e+00
0.000000000000000000e+00,-7.728516797461701220e-04,-9.794826429496330533e+00
0.000000000000000000e+00,-7.728516992132269947e-04,-9.794826430228560810e+00
0.000000000000000000e+00,-7.728517186802838675e-04,-9.794826430960787533e+00
0.000000000000000000e+00,-7.728517381473405234e-04,-9.794826431693012481e+00
0.000000000000000000e+00,-7.728517576143967456e-04,-9.794826432425239204e+00
0.000000000000000000e+00,-7.728517770814530763e-04,-9.794826433157469481e+00
0.000000000000000000e+00,-7.728517965485090816e-04,-9.794826433889692652e+00
0.000000000000000000e+00,-7.728518160155650870e-04,-9.794826434621921152e+00
0.000000000000000000e+00,-7.728518354826206587e-04,-9.794826435354147876e+00
0.000000000000000000e+00,-7.728518549496761220e-04,-9.794826436086374599e+00
0.000000000000000000e+00,-7.728518744167312601e-04,-9.794826436818603099e+00
0.000000000000000000e+00,-7.728518938837863981e-04,-9.794826437550828047e+00
0.000000000000000000e+00,-7.728519133508413193e-04,-9.794826438283054770e+00
0.000000000000000000e+00,-7.728519328178958068e-04,-9.794826439015283270e+00
0.000000000000000000e+00,-7.728519522849502943e-04,-9.794826439747509994e+00
0.000000000000000000e+00,-7.728519717520045650e-04,-9.794826440479734941e+00
0.000000000000000000e+00,-7.728519912190588356e-04,-9.794826441211965218e+00
0.000000000000000000e+00,-7.728520106861125642e-04,-9.794826441944191942e+00
0.000000000000000000e+00,-7.728520301531665096e-04,-9.794826442676416889e+00
0.000000000000000000e+00,-7.728520496202199129e-04,-9.794826443408645389e+00
0.000000000000000000e+00,-7.728520690872730994e-04,-9.794826444140872113e+00
0.000000000000000000e+00,-7.728520885543263942e-04,-9.794826444873098836e+00
0.000000000000000000e+00,-7.728521080213791470e-04,-9.794826445605327336e+00
0.000000000000000000e+00,-7.728521274884318998e-04,-9.794826446337552284e+00
0.000000000000000000e+00,-7.728521469554845442e-04,-9.794826447069782560e+00
0.000000000000000000e+00,-7.728521664225368633e-04,-9.794826447802009284e+00
0.000000000000000000e+00,-7.728521858895889655e-04,-9.794826448534234231e+00
0.000000000000000000e+00,-7.728522053566408510e-04,-9.794826449266462731e+00
0.000000000000000000e+00,-7.728522248236927364e-04,-9.794826449998689455e+00
0.000000000000000000e+00,-7.728522442907441881e-04,-9.794826450730914402e+00
0.000000000000000000e+00,-7.728522637577954230e-04,-9.794826451463142902e+00
0.000000000000000000e+00,-7.728522832248467664e-04,-9.794826452195369626e+00
0.000000000000000000e+00,-7.728523026918976760e-04,-9.794826452927596350e+00
0.000000000000000000e+00,-7.728523221589485856e-04,-9.794826453659824850e+00
0.000000000000000000e+00,-7.728523416259990616e-04,-9.794826454392051573e+00
0.000000000000000000e+00,-7.728523610930494291e-04,-9.794826455124278297e+00
0.000000000000000000e+00,-7.728523805600996882e-04,-9.794826455856506797e+00
0.000000000000000000e+00,-7.728524000271495137e-04,-9.794826456588733521e+00
0.000000000000000000e+00,-7.728524194941994475e-04,-9.794826457320960245e+00
0.000000000000000000e+00,-7.728524389612491646e-04,-9.794826458053188745e+00
0.000000000000000000e+00,-7.728524584282984479e-04,-9.794826458785415468e+00
0.000000000000000000e+00,-7.728524778953477312e-04,-9.794826459517642192e+00
0.000000000000000000e+00,-7.728524973623967977e-04,-9.794826460249868916e+00
0.000000000000000000e+00,-7.728525168294456474e-04,-9.794826460982097416e+00
0.000000000000000000e+00,-7.728525362964942802e-04,-9.794826461714324140e+00
0.000000000000000000e+00,-7.728525557635426962e-04,-9.794826462446550863e+00
0.000000000000000000e+00,-7.728525752305910037e-04,-9.794826463178777587e+00
0.000000000000000000e+00,-7.728525946976389860e-04,-9.794826463911006087e+00
0.000000000000000000e+00,-7.728526141646870767e-04,-9.794826464643234587e+00
0.000000000000000000e+00,-7.728526336317347338e-04,-9.794826465375459534e+00
0.000000000000000000e+00,-7.728526530987820655e-04,-9.794826466107688034e+00
0.000000000000000000e+00,-7.728526725658293973e-04,-9.794826466839916534e+00
0.000000000000000000e+00,-7.728526920328765122e-04,-9.794826467572143258e+00
0.000000000000000000e+00,-7.728527114999234103e-04,-9.794826468304369982e+00
0.000000000000000000e+00,-7.728527309669700916e-04,-9.794826469036598482e+00
0.000000000000000000e+00,-7.728527504340166644e-04,-9.794826469768826982e+00
0.000000000000000000e+00,-7.728527699010629120e-04,-9.794826470501051929e+00
0.000000000000000000e+00,-7.728527893681089427e-04,-9.794826471233280429e+00
0.000000000000000000e+00,-7.728528088351550819e-04,-9.794826471965508929e+00
0.000000000000000000e+00,-7.728528283022007873e-04,-9.794826472697733877e+00
0.000000000000000000e+00,-7.728528477692461676e-04,-9.794826473429962377e+00
0.000000000000000000e+00,-7.728528672362916562e-04,-9.794826474162190877e+00
0.000000000000000000e+00,-7.728528867033367111e-04,-9.794826474894419377e+00
0.000000000000000000e+00,-7.728529061703816577e-04,-9.794826475626644324e+00
0.000000000000000000e+00,-7.728529256374263873e-04,-9.794826476358872824e+00
0.000000000000000000e+00,-7.728529451044709002e-04,-9.794826477091101324e+00
0.000000000000000000e+00,-7.728529645715155215e-04,-9.794826477823328048e+00
0.000000000000000000e+00,-7.728529840385596006e-04,-9.794826478555554772e+00
0.000000000000000000e+00,-7.728530035056035714e-04,-9.794826479287783272e+00
0.000000000000000000e+00,-7.728530229726474337e-04,-9.794826480020009996e+00
0.000000000000000000e+00,-7.728530424396908623e-04,-9.794826480752238496e+00
0.000000000000000000e+00,-7.728530619067345078e-04,-9.794826481484466996e+00
0.000000000000000000e+00,-7.728530813737776112e-04,-9.794826482216691943e+00
0.000000000000000000e+00,-7.728531008408206062e-04,-9.794826482948920443e+00
0.000000000000000000e+00,-7.728531203078634927e-04,-9.794826483681148943e+00
0.000000000000000000e+00,-7.728531397749060540e-04,-9.794826484413373890e+00
0.000000000000000000e+00,-7.728531592419485069e-04,-9.794826485145602391e+00
0.000000000000000000e+00,-7.728531787089907429e-04,-9.794826485877830891e+00
0.000000000000000000e+00,-7.728531981760326536e-04,-9.794826486610061167e+00
0.000000000000000000e+00,-7.728532176430747812e-04,-9.794826487342287891e+00
0.000000000000000000e+00,-7.728532371101162583e-04,-9.794826488074512838e+00
0.000000000000000000e+00,-7.728532565771577354e-04,-9.794826488806744891e+00
0.000000000000000000e+00,-7.728532760441991041e-04,-9.794826489538969838e+00
0.000000000000000000e+00,-7.728532955112400391e-04,-9.794826490271198338e+00
0.000000000000000000e+00,-7.728533149782810825e-04,-9.794826491003425062e+00
0.000000000000000000e+00,-7.728533344453215837e-04,-9.794826491735653562e+00
0.000000000000000000e+00,-7.728533539123621935e-04,-9.794826492467882062e+00
0.000000000000000000e+00,-7.728533733794024779e-04,-9.794826493200110562e+00
0.000000000000000000e+00,-7.728533928464426540e-04,-9.794826493932337286e+00
0.000000000000000000e+00,-7.728534123134823963e-04,-9.794826494664564009e+00
0.000000000000000000e+00,-7.728534317805222471e-04,-9.794826495396792509e+00
0.000000000000000000e+00,-7.728534512475616642e-04,-9.794826496129021010e+00
0.000000000000000000e+00,-7.728534707146009729e-04,-9.794826496861249510e+00
0.000000000000000000e+00,-7.728534901816402816e-04,-9.794826497593478010e+00
0.000000000000000000e+00,-7.728535096486790481e-04,-9.794826498325704733e+00
0.000000000000000000e+00,-7.728535291157178147e-04,-9.794826499057931457e+00
0.000000000000000000e+00,-7.728535485827563644e-04,-9.794826499790159957e+00
0.000000000000000000e+00,-7.728535680497945889e-04,-9.794826500522388457e+00
0.000000000000000000e+00,-7.728535875168327050e-04,-9.794826501254616957e+00
0.000000000000000000e+00,-7.728536069838708210e-04,-9.794826501986841905e+00
0.000000000000000000e+00,-7.728536264509087202e-04,-9.794826502719070405e+00
0.000000000000000000e+00,-7.728536459179462942e-04,-9.794826503451300681e+00
0.000000000000000000e+00,-7.728536653849834345e-04,-9.794826504183529181e+00
0.000000000000000000e+00,-7.728536848520206832e-04,-9.794826504915755905e+00
0.000000000000000000e+00,-7.728537043190577150e-04,-9.794826505647982628e+00
0.000000000000000000e+00,-7.728537237860946384e-04,-9.794826506380212905e+00
0.000000000000000000e+00,-7.728537432531310198e-04,-9.794826507112437852e+00
0.000000000000000000e+00,-7.728537627201676179e-04,-9.794826507844666352e+00
0.000000000000000000e+00,-7.728537821872038908e-04,-9.794826508576896629e+00
0.000000000000000000e+00,-7.728538016542397301e-04,-9.794826509309125129e+00
0.000000000000000000e+00,-7.728538211212757861e-04,-9.794826510041350076e+00
0.000000000000000000e+00,-7.728538405883111917e-04,-9.794826510773578576e+00
0.000000000000000000e+00,-7.728538600553468141e-04,-9.794826511505808853e+00
0.000000000000000000e+00,-7.728538795223817860e-04,-9.794826512238035576e+00
0.000000000000000000e+00,-7.728538989894169747e-04,-9.794826512970264076e+00
0.000000000000000000e+00,-7.728539184564518381e-04,-9.794826513702492576e+00
0.000000000000000000e+00,-7.728539379234864847e-04,-9.794826514434719300e+00
0.000000000000000000e+00,-7.728539573905208061e-04,-9.794826515166947800e+00
0.000000000000000000e+00,-7.728539768575551274e-04,-9.794826515899176300e+00
0.000000000000000000e+00,-7.728539963245893403e-04,-9.794826516631404800e+00
0.000000000000000000e+00,-7.728540157916233364e-04,-9.794826517363633300e+00
0.000000000000000000e+00,-7.728540352586568988e-04,-9.794826518095861800e+00
0.000000000000000000e+00,-7.728540547256902444e-04,-9.794826518828088524e+00
0.000000000000000000e+00,-7.728540741927238068e-04,-9.794826519560315248e+00
0.000000000000000000e+00,-7.728540936597567187e-04,-9.794826520292545524e+00
0.000000000000000000e+00,-7.728541131267897390e-04,-9.794826521024774024e+00
0.000000000000000000e+00,-7.728541325938225424e-04,-9.794826521757002524e+00
0.000000000000000000e+00,-7.728541520608551291e-04,-9.794826522489231024e+00
0.000000000000000000e+00,-7.728541715278872820e-04,-9.794826523221459524e+00
0.000000000000000000e+00,-7.728541909949194350e-04,-9.794826523953686248e+00
0.000000000000000000e+00,-7.728542104619513711e-04,-9.794826524685912972e+00
0.000000000000000000e+00,-7.728542299289831987e-04,-9.794826525418143248e+00
0.000000000000000000e+00,-7.728542493960148096e-04,-9.794826526150371748e+00
0.000000000000000000e+00,-7.728542688630459867e-04,-9.794826526882600248e+00
0.000000000000000000e+00,-7.728542883300771639e-04,-9.794826527614826972e+00
0.000000000000000000e+00,-7.728543077971081242e-04,-9.794826528347057248e+00
0.000000000000000000e+00,-7.728543272641389761e-04,-9.794826529079285748e+00
0.000000000000000000e+00,-7.728543467311695028e-04,-9.794826529811512472e+00
0.000000000000000000e+00,-7.728543661981999210e-04,-9.794826530543739196e+00
0.000000000000000000e+00,-7.728543856652301224e-04,-9.794826531275971249e+00
0.000000000000000000e+00,-7.728544051322601069e-04,-9.794826532008197972e+00
0.000000000000000000e+00,-7.728544245992898746e-04,-9.794826532740426472e+00
0.000000000000000000e+00,-7.728544440663195339e-04,-9.794826533472654972e+00
0.000000000000000000e+00,-7.728544635333489763e-04,-9.794826534204885249e+00
0.000000000000000000e+00,-7.728544830003783103e-04,-9.794826534937111973e+00
0.000000000000000000e+00,-7.728545024674072107e-04,-9.794826535669342249e+00
0.000000000000000000e+00,-7.728545219344362194e-04,-9.794826536401567196e+00
0.000000000000000000e+00,-7.728545414014647945e-04,-9.794826537133797473e+00
0.000000000000000000e+00,-7.728545608684930443e-04,-9.794826537866025973e+00
0.000000000000000000e+00,-7.728545803355214025e-04,-9.794826538598252696e+00
0.000000000000000000e+00,-7.728545998025493271e-04,-9.794826539330482973e+00
0.000000000000000000e+00,-7.728546192695774685e-04,-9.794826540062713249e+00
0.000000000000000000e+00,-7.728546387366051762e-04,-9.794826540794939973e+00
0.000000000000000000e+00,-7.728546582036324502e-04,-9.794826541527166697e+00
0.000000000000000000e+00,-7.728546776706598327e-04,-9.794826542259398749e+00
0.000000000000000000e+00,-7.728546971376868899e-04,-9.794826542991627250e+00
0.000000000000000000e+00,-7.728547166047137302e-04,-9.794826543723855750e+00
0.000000000000000000e+00,-7.728547360717404622e-04,-9.794826544456080697e+00
0.000000000000000000e+00,-7.728547555387670857e-04,-9.794826545188312750e+00
0.000000000000000000e+00,-7.728547750057931671e-04,-9.794826545920541250e+00
0.000000000000000000e+00,-7.728547944728192485e-04,-9.794826546652766197e+00
0.000000000000000000e+00,-7.728548139398452215e-04,-9.794826547384996474e+00
0.000000000000000000e+00,-7.728548334068710860e-04,-9.794826548117226750e+00
0.000000000000000000e+00,-7.728548528738965169e-04,-9.794826548849455250e+00
0.000000000000000000e+00,-7.728548723409218394e-04,-9.794826549581681974e+00
0.000000000000000000e+00,-7.728548918079469450e-04,-9.794826550313912250e+00
0.000000000000000000e+00,-7.728549112749720507e-04,-9.794826551046142527e+00
0.000000000000000000e+00,-7.728549307419966142e-04,-9.794826551778371027e+00
0.000000000000000000e+00,-7.728549502090215030e-04,-9.794826552510597750e+00
0.000000000000000000e+00,-7.728549696760456328e-04,-9.794826553242826250e+00
0.000000000000000000e+00,-7.728549891430698711e-04,-9.794826553975056527e+00
0.000000000000000000e+00,-7.728550086100940009e-04,-9.794826554707281474e+00
0.000000000000000000e+00,-7.728550280771175887e-04,-9.794826555439511750e+00
0.000000000000000000e+00,-7.728550475441412848e-04,-9.794826556171742027e+00
0.000000000000000000e+00,-7.728550670111646557e-04,-9.794826556903970527e+00
0.000000000000000000e+00,-7.728550864781877014e-04,-9.794826557636197251e+00
0.000000000000000000e+00,-7.728551059452106386e-04,-9.794826558368427527e+00
0.000000000000000000e+00,-7.728551254122337927e-04,-9.794826559100657803e+00
0.000000000000000000e+00,-7.728551448792561878e-04,-9.794826559832886304e+00
0.000000000000000000e+00,-7.728551643462786913e-04,-9.794826560565113027e+00
0.000000000000000000e+00,-7.728551838133007612e-04,-9.794826561297341527e+00
0.000000000000000000e+00,-7.728552032803227227e-04,-9.794826562029573580e+00
0.000000000000000000e+00,-7.728552227473449009e-04,-9.794826562761802080e+00
0.000000000000000000e+00,-7.728552422143664287e-04,-9.794826563494028804e+00
0.000000000000000000e+00,-7.728552616813879565e-04,-9.794826564226257304e+00
0.000000000000000000e+00,-7.728552811484092674e-04,-9.794826564958489357e+00
0.000000000000000000e+00,-7.728553006154302530e-04,-9.794826565690717857e+00
0.000000000000000000e+00,-7.728553200824512387e-04,-9.794826566422944580e+00
0.000000000000000000e+00,-7.728553395494717907e-04,-9.794826567155173080e+00
0.000000000000000000e+00,-7.728553590164921258e-04,-9.794826567887405133e+00
0.000000000000000000e+00,-7.728553784835125694e-04,-9.794826568619633633e+00
0.000000000000000000e+00,-7.728553979505325792e-04,-9.794826569351860357e+00
0.000000000000000000e+00,-7.728554174175525891e-04,-9.794826570084088857e+00
0.000000000000000000e+00,-7.728554368845722737e-04,-9.794826570816320910e+00
0.000000000000000000e+00,-7.728554563515918499e-04,-9.794826571548549410e+00
0.000000000000000000e+00,-7.728554758186111009e-04,-9.794826572280777910e+00
0.000000000000000000e+00,-7.728554952856302434e-04,-9.794826573013008186e+00
0.000000000000000000e+00,-7.728555147526491691e-04,-9.794826573745236686e+00
0.000000000000000000e+00,-7.728555342196678779e-04,-9.794826574477465186e+00
0.000000000000000000e+00,-7.728555536866863699e-04,-9.794826575209693686e+00
0.000000000000000000e+00,-7.728555731537047535e-04,-9.794826575941923963e+00
0.000000000000000000e+00,-7.728555926207228118e-04,-9.794826576674152463e+00
0.000000000000000000e+00,-7.728556120877408701e-04,-9.794826577406380963e+00
0.000000000000000000e+00,-7.728556315547587116e-04,-9.794826578138609463e+00
0.000000000000000000e+00,-7.728556510217762278e-04,-9.794826578870839739e+00
0.000000000000000000e+00,-7.728556704887936356e-04,-9.794826579603070016e+00
0.000000000000000000e+00,-7.728556899558107181e-04,-9.794826580335298516e+00
0.000000000000000000e+00,-7.728557094228278006e-04,-9.794826581067525240e+00
0.000000000000000000e+00,-7.728557288898445579e-04,-9.794826581799755516e+00
0.000000000000000000e+00,-7.728557483568612068e-04,-9.794826582531985792e+00
0.000000000000000000e+00,-7.728557678238775304e-04,-9.794826583264214293e+00
0.000000000000000000e+00,-7.728557872908936371e-04,-9.794826583996442793e+00
0.000000000000000000e+00,-7.728558067579096354e-04,-9.794826584728673069e+00
0.000000000000000000e+00,-7.728558262249255253e-04,-9.794826585460901569e+00
0.000000000000000000e+00,-7.728558456919410900e-04,-9.794826586193131845e+00
0.000000000000000000e+00,-7.728558651589565462e-04,-9.794826586925358569e+00
0.000000000000000000e+00,-7.728558846259717856e-04,-9.794826587657588846e+00
0.000000000000000000e+00,-7.728559040929869166e-04,-9.794826588389819122e+00
0.000000000000000000e+00,-7.728559235600017223e-04,-9.794826589122047622e+00
0.000000000000000000e+00,-7.728559430270164196e-04,-9.794826589854276122e+00
0.000000000000000000e+00,-7.728559624940309000e-04,-9.794826590586506398e+00
0.000000000000000000e+00,-7.728559819610450552e-04,-9.794826591318734899e+00
0.000000000000000000e+00,-7.728560014280592104e-04,-9.794826592050963399e+00
0.000000000000000000e+00,-7.728560208950731487e-04,-9.794826592783193675e+00
0.000000000000000000e+00,-7.728560403620868702e-04,-9.794826593515423951e+00
0.000000000000000000e+00,-7.728560598291003749e-04,-9.794826594247652451e+00
0.000000000000000000e+00,-7.728560792961135543e-04,-9.794826594979880952e+00
0.000000000000000000e+00,-7.728560987631267337e-04,-9.794826595712111228e+00
0.000000000000000000e+00,-7.728561182301395879e-04,-9.794826596444339728e+00
0.000000000000000000e+00,-7.728561376971524420e-04,-9.794826597176568228e+00
0.000000000000000000e+00,-7.728561571641649709e-04,-9.794826597908798504e+00
0.000000000000000000e+00,-7.728561766311771745e-04,-9.794826598641027005e+00
0.000000000000000000e+00,-7.728561960981892697e-04,-9.794826599373259057e+00
0.000000000000000000e+00,-7.728562155652012565e-04,-9.794826600105487557e+00
0.000000000000000000e+00,-7.728562350322129180e-04,-9.794826600837717834e+00
0.000000000000000000e+00,-7.728562544992244711e-04,-9.794826601569949887e+00
0.000000000000000000e+00,-7.728562739662359158e-04,-9.794826602302176610e+00
0.000000000000000000e+00,-7.728562934332470352e-04,-9.794826603034405110e+00
0.000000000000000000e+00,-7.728563129002580462e-04,-9.794826603766635387e+00
0.000000000000000000e+00,-7.728563323672686235e-04,-9.794826604498865663e+00
0.000000000000000000e+00,-7.728563518342794177e-04,-9.794826605231092387e+00
0.000000000000000000e+00,-7.728563713012897782e-04,-9.794826605963322663e+00
0.000000000000000000e+00,-7.728563907682999218e-04,-9.794826606695552940e+00
0.000000000000000000e+00,-7.728564102353098486e-04,-9.794826607427783216e+00
0.000000000000000000e+00,-7.728564297023197754e-04,-9.794826608160011716e+00
0.000000000000000000e+00,-7.728564491693292685e-04,-9.794826608892240216e+00
0.000000000000000000e+00,-7.728564686363388701e-04,-9.794826609624474045e+00
0.000000000000000000e+00,-7.728564881033480379e-04,-9.794826610356702545e+00
0.000000000000000000e+00,-7.728565075703568805e-04,-9.794826611088932822e+00
0.000000000000000000e+00,-7.728565270373657231e-04,-9.794826611821159545e+00
0.000000000000000000e+00,-7.728565465043743489e-04,-9.794826612553391598e+00
0.000000000000000000e+00,-7.728565659713828662e-04,-9.794826613285620098e+00
0.000000000000000000e+00,-7.728565854383910583e-04,-9.794826614017848598e+00
0.000000000000000000e+00,-7.728566049053991419e-04,-9.794826614750077098e+00
0.000000000000000000e+00,-7.728566243724070087e-04,-9.794826615482307375e+00
0.000000000000000000e+00,-7.728566438394146587e-04,-9.794826616214537651e+00
0.000000000000000000e+00,-7.728566633064222003e-04,-9.794826616946766151e+00
0.000000000000000000e+00,-7.728566827734294166e-04,-9.794826617678998204e+00
0.000000000000000000e+00,-7.728567022404364160e-04,-9.794826618411228480e+00
0.000000000000000000e+00,-7.728567217074433070e-04,-9.794826619143456981e+00
0.000000000000000000e+00,-7.728567411744500897e-04,-9.794826619875687257e+00
0.000000000000000000e+00,-7.728567606414565470e-04,-9.794826620607919310e+00
0.000000000000000000e+00,-7.728567801084627875e-04,-9.794826621340146033e+00
0.000000000000000000e+00,-7.728567995754689196e-04,-9.794826622072376310e+00
0.000000000000000000e+00,-7.728568190424749433e-04,-9.794826622804604810e+00
0.000000000000000000e+00,-7.728568385094806417e-04,-9.794826623536836863e+00
0.000000000000000000e+00,-7.728568579764861233e-04,-9.794826624269067139e+00
0.000000000000000000e+00,-7.728568774434914964e-04,-9.794826625001295639e+00
0.000000000000000000e+00,-7.728568969104966527e-04,-9.794826625733525916e+00
0.000000000000000000e+00,-7.728569163775015922e-04,-9.794826626465756192e+00
0.000000000000000000e+00,-7.728569358445063148e-04,-9.794826627197986468e+00
0.000000000000000000e+00,-7.728569553115108206e-04,-9.794826627930213192e+00
0.000000000000000000e+00,-7.728569747785153264e-04,-9.794826628662443468e+00
0.000000000000000000e+00,-7.728569942455192901e-04,-9.794826629394673745e+00
0.000000000000000000e+00,-7.728570137125233622e-04,-9.794826630126905798e+00
0.000000000000000000e+00,-7.728570331795272174e-04,-9.794826630859134298e+00
0.000000000000000000e+00,-7.728570526465307474e-04,-9.794826631591362798e+00
0.000000000000000000e+00,-7.728570721135341690e-04,-9.794826632323594851e+00
0.000000000000000000e+00,-7.728570915805372653e-04,-9.794826633055823351e+00
0.000000000000000000e+00,-7.728571110475402533e-04,-9.794826633788053627e+00
0.000000000000000000e+00,-7.728571305145432412e-04,-9.794826634520282127e+00
0.000000000000000000e+00,-7.728571499815456870e-04,-9.794826635252514180e+00
0.000000000000000000e+00,-7.728571694485481328e-04,-9.794826635984744456e+00
0.000000000000000000e+00,-7.728571889155503617e-04,-9.794826636716974733e+00
0.000000000000000000e+00,-7.728572083825524823e-04,-9.794826637449203233e+00
0.000000000000000000e+00,-7.728572278495542775e-04,-9.794826638181433509e+00
0.000000000000000000e+00,-7.728572473165559644e-04,-9.794826638913663786e+00
0.000000000000000000e+00,-7.728572667835573260e-04,-9.794826639645895838e+00
0.000000000000000000e+00,-7.728572862505585792e-04,-9.794826640378126115e+00
0.000000000000000000e+00,-7.728573057175596155e-04,-9.794826641110354615e+00
0.000000000000000000e+00,-7.728573251845605434e-04,-9.794826641842583115e+00
0.000000000000000000e+00,-7.728573446515612545e-04,-9.794826642574813391e+00
0.000000000000000000e+00,-7.728573641185617488e-04,-9.794826643307045444e+00
0.000000000000000000e+00,-7.728573835855621346e-04,-9.794826644039275720e+00
0.000000000000000000e+00,-7.728574030525619783e-04,-9.794826644771504220e+00
0.000000000000000000e+00,-7.728574225195620389e-04,-9.794826645503734497e+00
0.000000000000000000e+00,-7.728574419865616657e-04,-9.794826646235964773e+00
0.000000000000000000e+00,-7.728574614535611842e-04,-9.794826646968195050e+00
0.000000000000000000e+00,-7.728574809205604858e-04,-9.794826647700421773e+00
0.000000000000000000e+00,-7.728575003875597874e-04,-9.794826648432653826e+00
0.000000000000000000e+00,-7.728575198545585469e-04,-9.794826649164885879e+00
0.000000000000000000e+00,-7.728575393215571980e-04,-9.794826649897116155e+00
0.000000000000000000e+00,-7.728575587885557407e-04,-9.794826650629346432e+00
0.000000000000000000e+00,-7.728575782555540665e-04,-9.794826651361573155e+00
0.000000000000000000e+00,-7.728575977225522840e-04,-9.794826652093806985e+00
0.000000000000000000e+00,-7.728576171895501761e-04,-9.794826652826037261e+00
0.000000000000000000e+00,-7.728576366565480683e-04,-9.794826653558267537e+00
0.000000000000000000e+00,-7.728576561235455267e-04,-9.794826654290499590e+00
0.000000000000000000e+00,-7.728576755905427684e-04,-9.794826655022726314e+00
0.000000000000000000e+00,-7.728576950575400100e-04,-9.794826655754958367e+00
0.000000000000000000e+00,-7.728577145245369264e-04,-9.794826656487186867e+00
0.000000000000000000e+00,-7.728577339915338427e-04,-9.794826657219418919e+00
0.000000000000000000e+00,-7.728577534585304339e-04,-9.794826657951649196e+00
0.000000000000000000e+00,-7.728577729255268081e-04,-9.794826658683875920e+00
0.000000000000000000e+00,-7.728577923925229656e-04,-9.794826659416107972e+00
0.000000000000000000e+00,-7.728578118595191230e-04,-9.794826660148340025e+00
0.000000000000000000e+00,-7.728578313265147383e-04,-9.794826660880570302e+00
0.000000000000000000e+00,-7.728578507935105705e-04,-9.794826661612800578e+00
0.000000000000000000e+00,-7.728578702605058606e-04,-9.794826662345029078e+00
0.000000000000000000e+00,-7.728578897275011506e-04,-9.794826663077262907e+00
0.000000000000000000e+00,-7.728579091944963323e-04,-9.794826663809491407e+00
0.000000000000000000e+00,-7.728579286614910802e-04,-9.794826664541721684e+00
0.000000000000000000e+00,-7.728579481284855029e-04,-9.794826665273951960e+00
0.000000000000000000e+00,-7.728579675954801425e-04,-9.794826666006185789e+00
0.000000000000000000e+00,-7.728579870624743484e-04,-9.794826666738414289e+00
0.000000000000000000e+00,-7.728580065294685542e-04,-9.794826667470642789e+00
0.000000000000000000e+00,-7.728580259964623264e-04,-9.794826668202873066e+00
0.000000000000000000e+00,-7.728580454634560986e-04,-9.794826668935106895e+00
0.000000000000000000e+00,-7.728580649304495455e-04,-9.794826669667337171e+00
0.000000000000000000e+00,-7.728580843974427756e-04,-9.794826670399563895e+00
0.000000000000000000e+00,-7.728581038644358973e-04,-9.794826671131795948e+00
0.000000000000000000e+00,-7.728581233314288021e-04,-9.794826671864026224e+00
0.000000000000000000e+00,-7.728581427984213817e-04,-9.794826672596258277e+00
0.000000000000000000e+00,-7.728581622654139612e-04,-9.794826673328486777e+00
0.000000000000000000e+00,-7.728581817324064324e-04,-9.794826674060718830e+00
0.000000000000000000e+00,-7.728582011993985782e-04,-9.794826674792949106e+00
0.000000000000000000e+00,-7.728582206663905073e-04,-9.794826675525179382e+00
0.000000000000000000e+00,-7.728582401333821111e-04,-9.794826676257409659e+00
0.000000000000000000e+00,-7.728582596003737148e-04,-9.794826676989639935e+00
0.000000000000000000e+00,-7.728582790673651018e-04,-9.794826677721870212e+00
0.000000000000000000e+00,-7.728582985343561635e-04,-9.794826678454102264e+00
0.000000000000000000e+00,-7.728583180013471167e-04,-9.794826679186332541e+00
0.000000000000000000e+00,-7.728583374683378531e-04,-9.794826679918564594e+00
0.000000000000000000e+00,-7.728583569353284811e-04,-9.794826680650794870e+00
0.000000000000000000e+00,-7.728583764023187839e-04,-9.794826681383023370e+00
0.000000000000000000e+00,-7.728583958693088698e-04,-9.794826682115255423e+00
0.000000000000000000e+00,-7.728584153362989557e-04,-9.794826682847487476e+00
0.000000000000000000e+00,-7.728584348032889332e-04,-9.794826683579717752e+00
0.000000000000000000e+00,-7.728584542702784770e-04,-9.794826684311948028e+00
0.000000000000000000e+00,-7.728584737372679123e-04,-9.794826685044176529e+00
0.000000000000000000e+00,-7.728584932042569140e-04,-9.794826685776408581e+00
0.000000000000000000e+00,-7.728585126712461326e-04,-9.794826686508640634e+00
0.000000000000000000e+00,-7.728585321382349174e-04,-9.794826687240870911e+00
0.000000000000000000e+00,-7.728585516052234854e-04,-9.794826687973102963e+00
0.000000000000000000e+00,-7.728585710722120534e-04,-9.794826688705333240e+00
0.000000000000000000e+00,-7.728585905392001878e-04,-9.794826689437561740e+00
0.000000000000000000e+00,-7.728586100061881053e-04,-9.794826690169792016e+00
0.000000000000000000e+00,-7.728586294731761312e-04,-9.794826690902025845e+00
0.000000000000000000e+00,-7.728586489401637234e-04,-9.794826691634256122e+00
0.000000000000000000e+00,-7.728586684071512072e-04,-9.794826692366486398e+00
0.000000000000000000e+00,-7.728586878741383658e-04,-9.794826693098714898e+00
0.000000000000000000e+00,-7.728587073411255243e-04,-9.794826693830948727e+00
0.000000000000000000e+00,-7.728587268081123576e-04,-9.794826694563179004e+00
0.000000000000000000e+00,-7.728587462750991909e-04,-9.794826695295409280e+00
0.000000000000000000e+00,-7.728587657420855905e-04,-9.794826696027641333e+00
0.000000000000000000e+00,-7.728587852090718817e-04,-9.794826696759871609e+00
0.000000000000000000e+00,-7.728588046760579561e-04,-9.794826697492101886e+00
0.000000000000000000e+00,-7.728588241430439220e-04,-9.794826698224332162e+00
0.000000000000000000e+00,-7.728588436100295627e-04,-9.794826698956564215e+00
0.000000000000000000e+00,-7.728588630770149865e-04,-9.794826699688796268e+00
0.000000000000000000e+00,-7.728588825440003019e-04,-9.794826700421024768e+00
0.000000000000000000e+00,-7.728589020109855089e-04,-9.794826701153256820e+00
0.000000000000000000e+00,-7.728589214779704990e-04,-9.794826701885487097e+00
0.000000000000000000e+00,-7.728589409449553808e-04,-9.794826702617719150e+00
0.000000000000000000e+00,-7.728589604119398288e-04,-9.794826703349951202e+00
0.000000000000000000e+00,-7.728589798789240600e-04,-9.794826704082181479e+00
0.000000000000000000e+00,-7.728589993459082912e-04,-9.794826704814411755e+00
0.000000000000000000e+00,-7.728590188128923056e-04,-9.794826705546643808e+00
0.000000000000000000e+00,-7.728590382798761031e-04,-9.794826706278874084e+00
0.000000000000000000e+00,-7.728590577468596838e-04,-9.794826707011104361e+00
0.000000000000000000e+00,-7.728590772138429392e-04,-9.794826707743338190e+00
0.000000000000000000e+00,-7.728590966808261947e-04,-9.794826708475568466e+00
0.000000000000000000e+00,-7.728591161478091248e-04,-9.794826709207796966e+00
0.000000000000000000e+00,-7.728591356147920550e-04,-9.794826709940030796e+00
0.000000000000000000e+00,-7.728591550817746599e-04,-9.794826710672261072e+00
0.000000000000000000e+00,-7.728591745487570479e-04,-9.794826711404491348e+00
0.000000000000000000e+00,-7.728591940157393276e-04,-9.794826712136725178e+00
0.000000000000000000e+00,-7.728592134827213904e-04,-9.794826712868955454e+00
0.000000000000000000e+00,-7.728592329497030195e-04,-9.794826713601183954e+00
0.000000000000000000e+00,-7.728592524166848655e-04,-9.794826714333416007e+00
0.000000000000000000e+00,-7.728592718836661693e-04,-9.794826715065648060e+00
0.000000000000000000e+00,-7.728592913506474732e-04,-9.794826715797878336e+00
0.000000000000000000e+00,-7.728593108176284518e-04,-9.794826716530112165e+00
0.000000000000000000e+00,-7.728593302846093220e-04,-9.794826717262342441e+00
0.000000000000000000e+00,-7.728593497515899753e-04,-9.794826717994572718e+00
0.000000000000000000e+00,-7.728593692185705202e-04,-9.794826718726802994e+00
0.000000000000000000e+00,-7.728593886855507399e-04,-9.794826719459035047e+00
0.000000000000000000e+00,-7.728594081525308511e-04,-9.794826720191268876e+00
0.000000000000000000e+00,-7.728594276195106371e-04,-9.794826720923497376e+00
0.000000000000000000e+00,-7.728594470864903147e-04,-9.794826721655727653e+00
0.000000000000000000e+00,-7.728594665534699922e-04,-9.794826722387961482e+00
0.000000000000000000e+00,-7.728594860204492361e-04,-9.794826723120191758e+00
0.000000000000000000e+00,-7.728595054874282631e-04,-9.794826723852422035e+00
0.000000000000000000e+00,-7.728595249544071817e-04,-9.794826724584655864e+00
0.000000000000000000e+00,-7.728595444213858835e-04,-9.794826725316886140e+00
0.000000000000000000e+00,-7.728595638883644769e-04,-9.794826726049118193e+00
0.000000000000000000e+00,-7.728595833553428534e-04,-9.794826726781348469e+00
0.000000000000000000e+00,-7.728596028223210131e-04,-9.794826727513580522e+00
0.000000000000000000e+00,-7.728596222892989559e-04,-9.794826728245812575e+00
0.000000000000000000e+00,-7.728596417562766819e-04,-9.794826728978042851e+00
0.000000000000000000e+00,-7.728596612232542995e-04,-9.794826729710274904e+00
0.000000000000000000e+00,-7.728596806902317002e-04,-9.794826730442506957e+00
0.000000000000000000e+00,-7.728597001572086672e-04,-9.794826731174735457e+00
0.000000000000000000e+00,-7.728597196241858511e-04,-9.794826731906969286e+00
0.000000000000000000e+00,-7.728597390911624929e-04,-9.794826732639197786e+00
0.000000000000000000e+00,-7.728597585581391347e-04,-9.794826733371433392e+00
0.000000000000000000e+00,-7.728597780251155597e-04,-9.794826734103663668e+00
0.000000000000000000e+00,-7.728597974920917678e-04,-9.794826734835893944e+00
0.000000000000000000e+00,-7.728598169590676506e-04,-9.794826735568125997e+00
0.000000000000000000e+00,-7.728598364260434251e-04,-9.794826736300358050e+00
0.000000000000000000e+00,-7.728598558930191995e-04,-9.794826737032590103e+00
0.000000000000000000e+00,-7.728598753599945402e-04,-9.794826737764820379e+00
0.000000000000000000e+00,-7.728598948269696641e-04,-9.794826738497052432e+00
0.000000000000000000e+00,-7.728599142939447881e-04,-9.794826739229284485e+00
0.000000000000000000e+00,-7.728599337609195867e-04,-9.794826739961514761e+00
0.000000000000000000e+00,-7.728599532278942769e-04,-9.794826740693746814e+00
0.000000000000000000e+00,-7.728599726948687503e-04,-9.794826741425978867e+00
0.000000000000000000e+00,-7.728599921618430069e-04,-9.794826742158209143e+00
0.000000000000000000e+00,-7.728600116288170466e-04,-9.794826742890442972e+00
0.000000000000000000e+00,-7.728600310957908694e-04,-9.794826743622673249e+00
0.000000000000000000e+00,-7.728600505627644755e-04,-9.794826744354907078e+00
0.000000000000000000e+00,-7.728600700297380815e-04,-9.794826745087135578e+00
0.000000000000000000e+00,-7.728600894967114707e-04,-9.794826745819369407e+00
0.000000000000000000e+00,-7.728601089636843178e-04,-9.794826746551597907e+00
0.000000000000000000e+00,-7.728601284306572733e-04,-9.794826747283831736e+00
0.000000000000000000e+00,-7.728601478976301203e-04,-9.794826748016063789e+00
0.000000000000000000e+00,-7.728601673646024253e-04,-9.794826748748294065e+00
0.000000000000000000e+00,-7.728601868315748387e-04,-9.794826749480527894e+00
0.000000000000000000e+00,-7.728602062985469269e-04,-9.794826750212758171e+00
0.000000000000000000e+00,-7.728602257655189066e-04,-9.794826750944990224e+00
0.000000000000000000e+00,-7.728602452324905610e-04,-9.794826751677222276e+00
0.000000000000000000e+00,-7.728602646994622155e-04,-9.794826752409456105e+00
0.000000000000000000e+00,-7.728602841664335447e-04,-9.794826753141686382e+00
0.000000000000000000e+00,-7.728603036334046571e-04,-9.794826753873914882e+00
0.000000000000000000e+00,-7.728603231003756610e-04,-9.794826754606148711e+00
0.000000000000000000e+00,-7.728603425673463397e-04,-9.794826755338380764e+00
0.000000000000000000e+00,-7.728603620343168015e-04,-9.794826756070612817e+00
0.000000000000000000e+00,-7.728603815012871549e-04,-9.794826756802844869e+00
0.000000000000000000e+00,-7.728604009682573999e-04,-9.794826757535076922e+00
0.000000000000000000e+00,-7.728604204352274281e-04,-9.794826758267310751e+00
0.000000000000000000e+00,-7.728604399021971310e-04,-9.794826758999542804e+00
0.000000000000000000e+00,-7.728604593691668339e-04,-9.794826759731771304e+00
0.000000000000000000e+00,-7.728604788361362115e-04,-9.794826760464003357e+00
0.000000000000000000e+00,-7.728604983031053723e-04,-9.794826761196235410e+00
0.000000000000000000e+00,-7.728605177700745331e-04,-9.794826761928469239e+00
0.000000000000000000e+00,-7.728605372370432602e-04,-9.794826762660699515e+00
0.000000000000000000e+00,-7.728605567040118789e-04,-9.794826763392933344e+00
0.000000000000000000e+00,-7.728605761709803892e-04,-9.794826764125165397e+00
0.000000000000000000e+00,-7.728605956379485742e-04,-9.794826764857393897e+00
0.000000000000000000e+00,-7.728606151049165424e-04,-9.794826765589625950e+00
0.000000000000000000e+00,-7.728606345718844021e-04,-9.794826766321858003e+00
0.000000000000000000e+00,-7.728606540388520451e-04,-9.794826767054091832e+00
0.000000000000000000e+00,-7.728606735058195796e-04,-9.794826767786323884e+00
0.000000000000000000e+00,-7.728606929727867888e-04,-9.794826768518555937e+00
0.000000000000000000e+00,-7.728607124397538896e-04,-9.794826769250786214e+00
0.000000000000000000e+00,-7.728607319067205567e-04,-9.794826769983020043e+00
0.000000000000000000e+00,-7.728607513736873323e-04,-9.794826770715250319e+00
0.000000000000000000e+00,-7.728607708406538910e-04,-9.794826771447484148e+00
0.000000000000000000e+00,-7.728607903076201244e-04,-9.794826772179716201e+00
0.000000000000000000e+00,-7.728608097745861411e-04,-9.794826772911950030e+00
0.000000000000000000e+00,-7.728608292415521577e-04,-9.794826773644180307e+00
0.000000000000000000e+00,-7.728608487085177406e-04,-9.794826774376412359e+00
0.000000000000000000e+00,-7.728608681754833235e-04,-9.794826775108644412e+00
0.000000000000000000e+00,-7.728608876424486896e-04,-9.794826775840876465e+00
0.000000000000000000e+00,-7.728609071094138389e-04,-9.794826776573106741e+00
0.000000000000000000e+00,-7.728609265763788797e-04,-9.794826777305340570e+00
0.000000000000000000e+00,-7.728609460433434868e-04,-9.794826778037572623e+00
0.000000000000000000e+00,-7.728609655103082024e-04,-9.794826778769806452e+00
0.000000000000000000e+00,-7.728609849772724843e-04,-9.794826779502036729e+00
0.000000000000000000e+00,-7.728610044442365493e-04,-9.794826780234268782e+00
0.000000000000000000e+00,-7.728610239112003975e-04,-9.794826780966502611e+00
0.000000000000000000e+00,-7.728610433781642457e-04,-9.794826781698734663e+00
0.000000000000000000e+00,-7.728610628451278771e-04,-9.794826782430966716e+00
0.000000000000000000e+00,-7.728610823120911832e-04,-9.794826783163198769e+00
0.000000000000000000e+00,-7.728611017790542725e-04,-9.794826783895432598e+00
0.000000000000000000e+00,-7.728611212460173617e-04,-9.794826784627662875e+00
0.000000000000000000e+00,-7.728611407129801257e-04,-9.794826785359896704e+00
0.000000000000000000e+00,-7.728611601799427813e-04,-9.794826786092126980e+00
0.000000000000000000e+00,-7.728611796469051116e-04,-9.794826786824360809e+00
0.000000000000000000e+00,-7.728611991138673335e-04,-9.794826787556591086e+00
0.000000000000000000e+00,-7.728612185808293386e-04,-9.794826788288824915e+00
0.000000000000000000e+00,-7.728612380477912353e-04,-9.794826789021056967e+00
0.000000000000000000e+00,-7.728612575147529151e-04,-9.794826789753290797e+00
0.000000000000000000e+00,-7.728612769817143780e-04,-9.794826790485521073e+00
0.000000000000000000e+00,-7.728612964486756241e-04,-9.794826791217754902e+00
0.000000000000000000e+00,-7.728613159156367618e-04,-9.794826791949988731e+00
0.000000000000000000e+00,-7.728613353825973574e-04,-9.794826792682219008e+00
0.000000000000000000e+00,-7.728613548495581699e-04,-9.794826793414451060e+00
0.000000000000000000e+00,-7.728613743165186570e-04,-9.794826794146683113e+00
0.000000000000000000e+00,-7.728613937834790358e-04,-9.794826794878916942e+00
0.000000000000000000e+00,-7.728614132504388725e-04,-9.794826795611148995e+00
0.000000000000000000e+00,-7.728614327173987091e-04,-9.794826796343381048e+00
0.000000000000000000e+00,-7.728614521843586542e-04,-9.794826797075611324e+00
0.000000000000000000e+00,-7.728614716513179488e-04,-9.794826797807845153e+00
0.000000000000000000e+00,-7.728614911182772433e-04,-9.794826798540077206e+00
0.000000000000000000e+00,-7.728615105852364294e-04,-9.794826799272309259e+00
0.000000000000000000e+00,-7.728615300521952903e-04,-9.794826800004543088e+00
0.000000000000000000e+00,-7.728615495191540428e-04,-9.794826800736776917e+00
0.000000000000000000e+00,-7.728615689861125784e-04,-9.794826801469008970e+00
0.000000000000000000e+00,-7.728615884530708972e-04,-9.794826802201239246e+00
0.000000000000000000e+00,-7.728616079200291075e-04,-9.794826802933474852e+00
0.000000000000000000e+00,-7.728616273869869926e-04,-9.794826803665706905e+00
0.000000000000000000e+00,-7.728616468539446609e-04,-9.794826804397937181e+00
0.000000000000000000e+00,-7.728616663209022207e-04,-9.794826805130171010e+00
0.000000000000000000e+00,-7.728616857878594553e-04,-9.794826805862403063e+00
0.000000000000000000e+00,-7.728617052548166898e-04,-9.794826806594636892e+00
0.000000000000000000e+00,-7.728617247217735992e-04,-9.794826807326868945e+00
0.000000000000000000e+00,-7.728617441887305085e-04,-9.794826808059100998e+00
0.000000000000000000e+00,-7.728617636556872009e-04,-9.794826808791336603e+00
0.000000000000000000e+00,-7.728617831226434597e-04,-9.794826809523565103e+00
0.000000000000000000e+00,-7.728618025895997185e-04,-9.794826810255798932e+00
0.000000000000000000e+00,-7.728618220565555436e-04,-9.794826810988030985e+00
0.000000000000000000e+00,-7.728618415235113687e-04,-9.794826811720264814e+00
0.000000000000000000e+00,-7.728618609904669770e-04,-9.794826812452496867e+00
0.000000000000000000e+00,-7.728618804574224769e-04,-9.794826813184728920e+00
0.000000000000000000e+00,-7.728618999243777599e-04,-9.794826813916962749e+00
0.000000000000000000e+00,-7.728619193913327176e-04,-9.794826814649196578e+00
0.000000000000000000e+00,-7.728619388582875669e-04,-9.794826815381428631e+00
0.000000000000000000e+00,-7.728619583252421994e-04,-9.794826816113660684e+00
0.000000000000000000e+00,-7.728619777921967235e-04,-9.794826816845890960e+00
0.000000000000000000e+00,-7.728619972591509223e-04,-9.794826817578126565e+00
0.000000000000000000e+00,-7.728620167261050127e-04,-9.794826818310358618e+00
0.000000000000000000e+00,-7.728620361930587778e-04,-9.794826819042590671e+00
0.000000000000000000e+00,-7.728620556600125429e-04,-9.794826819774826276e+00
0.000000000000000000e+00,-7.728620751269658744e-04,-9.794826820507056553e+00
0.000000000000000000e+00,-7.728620945939192058e-04,-9.794826821239290382e+00
0.000000000000000000e+00,-7.728621140608722120e-04,-9.794826821971524211e+00
0.000000000000000000e+00,-7.728621335278252182e-04,-9.794826822703754488e+00
0.000000000000000000e+00,-7.728621529947778991e-04,-9.794826823435990093e+00
0.000000000000000000e+00,-7.728621724617302548e-04,-9.794826824168222146e+00
0.000000000000000000e+00,-7.728621919286827189e-04,-9.794826824900452422e+00
0.000000000000000000e+00,-7.728622113956347493e-04,-9.794826825632689804e+00
0.000000000000000000e+00,-7.728622308625866712e-04,-9.794826826364921857e+00
0.000000000000000000e+00,-7.728622503295383764e-04,-9.794826827097153910e+00
0.000000000000000000e+00,-7.728622697964898647e-04,-9.794826827829387739e+00
0.000000000000000000e+00,-7.728622892634412446e-04,-9.794826828561618015e+00
0.000000000000000000e+00,-7.728623087303924076e-04,-9.794826829293851844e+00
0.000000000000000000e+00,-7.728623281973433538e-04,-9.794826830026085673e+00
0.000000000000000000e+00,-7.728623476642940832e-04,-9.794826830758315950e+00
0.000000000000000000e+00,-7.728623671312447041e-04,-9.794826831490551555e+00
0.000000000000000000e+00,-7.728623865981952166e-04,-9.794826832222785384e+00
0.000000000000000000e+00,-7.728624060651451870e-04,-9.794826832955015661e+00
0.000000000000000000e+00,-7.728624255320952659e-04,-9.794826833687249490e+00
0.000000000000000000e+00,-7.728624449990450195e-04,-9.794826834419485095e+00
0.000000000000000000e+00,-7.728624644659945562e-04,-9.794826835151717148e+00
0.000000000000000000e+00,-7.728624839329439845e-04,-9.794826835883949201e+00
0.000000000000000000e+00,-7.728625033998931960e-04,-9.794826836616184806e+00
0.000000000000000000e+00,-7.728625228668419738e-04,-9.794826837348415083e+00
0.000000000000000000e+00,-7.728625423337910768e-04,-9.794826838080647136e+00
0.000000000000000000e+00,-7.728625618007394209e-04,-9.794826838812880965e+00
0.000000000000000000e+00,-7.728625812676879819e-04,-9.794826839545114794e+00
0.000000000000000000e+00,-7.728626007346361092e-04,-9.794826840277348623e+00
0.000000000000000000e+00,-7.728626202015843449e-04,-9.794826841009580676e+00
0.000000000000000000e+00,-7.728626396685319300e-04,-9.794826841741814505e+00
0.000000000000000000e+00,-7.728626591354797321e-04,-9.794826842474048334e+00
0.000000000000000000e+00,-7.728626786024273172e-04,-9.794826843206282163e+00
0.000000000000000000e+00,-7.728626980693744687e-04,-9.794826843938512440e+00
0.000000000000000000e+00,-7.728627175363215118e-04,-9.794826844670746269e+00
0.000000000000000000e+00,-7.728627370032682296e-04,-9.794826845402980098e+00
0.000000000000000000e+00,-7.728627564702150558e-04,-9.794826846135212151e+00
0.000000000000000000e+00,-7.728627759371615568e-04,-9.794826846867445980e+00
0.000000000000000000e+00,-7.728627954041077325e-04,-9.794826847599679809e+00
0.000000000000000000e+00,-7.728628148710540166e-04,-9.794826848331913638e+00
0.000000000000000000e+00,-7.728628343379997587e-04,-9.794826849064145691e+00
0.000000000000000000e+00,-7.728628538049455007e-04,-9.794826849796379520e+00
0.000000000000000000e+00,-7.728628732718909175e-04,-9.794826850528613349e+00
0.000000000000000000e+00,-7.728628927388362258e-04,-9.794826851260843625e+00
0.000000000000000000e+00,-7.728629122057814257e-04,-9.794826851993079231e+00
0.000000000000000000e+00,-7.728629316727264088e-04,-9.794826852725313060e+00
0.000000000000000000e+00,-7.728629511396710667e-04,-9.794826853457545113e+00
0.000000000000000000e+00,-7.728629706066155076e-04,-9.794826854189778942e+00
0.000000000000000000e+00,-7.728629900735600571e-04,-9.794826854922012771e+00
0.000000000000000000e+00,-7.728630095405040644e-04,-9.794826855654246600e+00
0.000000000000000000e+00,-7.728630290074480717e-04,-9.794826856386480429e+00
0.000000000000000000e+00,-7.728630484743916453e-04,-9.794826857118712482e+00
0.000000000000000000e+00,-7.728630679413353273e-04,-9.794826857850946311e+00
0.000000000000000000e+00,-7.728630874082786841e-04,-9.794826858583176588e+00
0.000000000000000000e+00,-7.728631068752219325e-04,-9.794826859315412193e+00
0.000000000000000000e+00,-7.728631263421649640e-04,-9.794826860047646022e+00
0.000000000000000000e+00,-7.728631458091076703e-04,-9.794826860779879851e+00
0.000000000000000000e+00,-7.728631652760503765e-04,-9.794826861512111904e+00
0.000000000000000000e+00,-7.728631847429926491e-04,-9.794826862244347510e+00
0.000000000000000000e+00,-7.728632042099349217e-04,-9.794826862976581339e+00
0.000000000000000000e+00,-7.728632236768769774e-04,-9.794826863708813391e+00
0.000000000000000000e+00,-7.728632431438187079e-04,-9.794826864441045444e+00
0.000000000000000000e+00,-7.728632626107603300e-04,-9.794826865173281050e+00
0.000000000000000000e+00,-7.728632820777017352e-04,-9.794826865905514879e+00
0.000000000000000000e+00,-7.728633015446430320e-04,-9.794826866637746932e+00
0.000000000000000000e+00,-7.728633210115841120e-04,-9.794826867369978984e+00
0.000000000000000000e+00,-7.728633404785248667e-04,-9.794826868102214590e+00
0.000000000000000000e+00,-7.728633599454656214e-04,-9.794826868834448419e+00
0.000000000000000000e+00,-7.728633794124060508e-04,-9.794826869566680472e+00
0.000000000000000000e+00,-7.728633988793461550e-04,-9.794826870298916077e+00
0.000000000000000000e+00,-7.728634183462862592e-04,-9.794826871031148130e+00
0.000000000000000000e+00,-7.728634378132261465e-04,-9.794826871763381959e+00
0.000000000000000000e+00,-7.728634572801657086e-04,-9.794826872495615788e+00
0.000000000000000000e+00,-7.728634767471052706e-04,-9.794826873227851394e+00
0.000000000000000000e+00,-7.728634962140446159e-04,-9.794826873960083446e+00
0.000000000000000000e+00,-7.728635156809837443e-04,-9.794826874692317276e+00
0.000000000000000000e+00,-7.728635351479226558e-04,-9.794826875424549328e+00
0.000000000000000000e+00,-7.728635546148615674e-04,-9.794826876156783158e+00
0.000000000000000000e+00,-7.728635740817998284e-04,-9.794826876889016987e+00
0.000000000000000000e+00,-7.728635935487383063e-04,-9.794826877621250816e+00
0.000000000000000000e+00,-7.728636130156763505e-04,-9.794826878353484645e+00
0.000000000000000000e+00,-7.728636324826142863e-04,-9.794826879085718474e+00
0.000000000000000000e+00,-7.728636519495518968e-04,-9.794826879817952303e+00
0.000000000000000000e+00,-7.728636714164896157e-04,-9.794826880550186132e+00
0.000000000000000000e+00,-7.728636908834267925e-04,-9.794826881282419961e+00
0.000000000000000000e+00,-7.728637103503639694e-04,-9.794826882014653791e+00
0.000000000000000000e+00,-7.728637298173010378e-04,-9.794826882746887620e+00
0.000000000000000000e+00,-7.728637492842377809e-04,-9.794826883479121449e+00
0.000000000000000000e+00,-7.728637687511744157e-04,-9.794826884211357054e+00
0.000000000000000000e+00,-7.728637882181107251e-04,-9.794826884943590883e+00
0.000000000000000000e+00,-7.728638076850469262e-04,-9.794826885675821160e+00
0.000000000000000000e+00,-7.728638271519829104e-04,-9.794826886408054989e+00
0.000000000000000000e+00,-7.728638466189185693e-04,-9.794826887140290594e+00
0.000000000000000000e+00,-7.728638660858541199e-04,-9.794826887872524424e+00
0.000000000000000000e+00,-7.728638855527896704e-04,-9.794826888604758253e+00
0.000000000000000000e+00,-7.728639050197248957e-04,-9.794826889336990305e+00
0.000000000000000000e+00,-7.728639244866600125e-04,-9.794826890069225911e+00
0.000000000000000000e+00,-7.728639439535946957e-04,-9.794826890801459740e+00
0.000000000000000000e+00,-7.728639634205294873e-04,-9.794826891533693569e+00
0.000000000000000000e+00,-7.728639828874638452e-04,-9.794826892265929175e+00
0.000000000000000000e+00,-7.728640023543980947e-04,-9.794826892998163004e+00
0.000000000000000000e+00,-7.728640218213322357e-04,-9.794826893730396833e+00
0.000000000000000000e+00,-7.728640412882660515e-04,-9.794826894462630662e+00
0.000000000000000000e+00,-7.728640607551997589e-04,-9.794826895194864491e+00
0.000000000000000000e+00,-7.728640802221331410e-04,-9.794826895927100097e+00
0.000000000000000000e+00,-7.728640996890665232e-04,-9.794826896659330373e+00
0.000000000000000000e+00,-7.728641191559995800e-04,-9.794826897391564202e+00
0.000000000000000000e+00,-7.728641386229324201e-04,-9.794826898123798031e+00
0.000000000000000000e+00,-7.728641580898650432e-04,-9.794826898856033637e+00
0.000000000000000000e+00,-7.728641775567975580e-04,-9.794826899588267466e+00
0.000000000000000000e+00,-7.728641970237297475e-04,-9.794826900320503071e+00
0.000000000000000000e+00,-7.728642164906618286e-04,-9.794826901052736901e+00
0.000000000000000000e+00,-7.728642359575938012e-04,-9.794826901784970730e+00
0.000000000000000000e+00,-7.728642554245255571e-04,-9.794826902517204559e+00
0.000000000000000000e+00,-7.728642748914570960e-04,-9.794826903249438388e+00
0.000000000000000000e+00,-7.728642943583882013e-04,-9.794826903981673993e+00
0.000000000000000000e+00,-7.728643138253195235e-04,-9.794826904713907822e+00
0.000000000000000000e+00,-7.728643332922504119e-04,-9.794826905446139875e+00
0.000000000000000000e+00,-7.728643527591810836e-04,-9.794826906178373704e+00
0.000000000000000000e+00,-7.728643722261117552e-04,-9.794826906910609310e+00
0.000000000000000000e+00,-7.728643916930421015e-04,-9.794826907642843139e+00
0.000000000000000000e+00,-7.728644111599722311e-04,-9.794826908375078744e+00
0.000000000000000000e+00,-7.728644306269022522e-04,-9.794826909107310797e+00
0.000000000000000000e+00,-7.728644500938318396e-04,-9.794826909839544626e+00
0.000000000000000000e+00,-7.728644695607616438e-04,-9.794826910571778456e+00
0.000000000000000000e+00,-7.728644890276910144e-04,-9.794826911304012285e+00
0.000000000000000000e+00,-7.728645084946200597e-04,-9.794826912036246114e+00
0.000000000000000000e+00,-7.728645279615492135e-04,-9.794826912768483496e+00
0.000000000000000000e+00,-7.728645474284779335e-04,-9.794826913500717325e+00
0.000000000000000000e+00,-7.728645668954066536e-04,-9.794826914232951154e+00
0.000000000000000000e+00,-7.728645863623350484e-04,-9.794826914965183207e+00
0.000000000000000000e+00,-7.728646058292631179e-04,-9.794826915697418812e+00
0.000000000000000000e+00,-7.728646252961912958e-04,-9.794826916429652641e+00
0.000000000000000000e+00,-7.728646447631189317e-04,-9.794826917161886470e+00
0.000000000000000000e+00,-7.728646642300466760e-04,-9.794826917894123852e+00
0.000000000000000000e+00,-7.728646836969740950e-04,-9.794826918626357681e+00
0.000000000000000000e+00,-7.728647031639012972e-04,-9.794826919358591510e+00
0.000000000000000000e+00,-7.728647226308283909e-04,-9.794826920090825340e+00
0.000000000000000000e+00,-7.728647420977553762e-04,-9.794826920823057392e+00
0.000000000000000000e+00,-7.728647615646820363e-04,-9.794826921555292998e+00
0.000000000000000000e+00,-7.728647810316085880e-04,-9.794826922287526827e+00
0.000000000000000000e+00,-7.728648004985347059e-04,-9.794826923019760656e+00
0.000000000000000000e+00,-7.728648199654610407e-04,-9.794826923751996262e+00
0.000000000000000000e+00,-7.728648394323867250e-04,-9.794826924484231867e+00
0.000000000000000000e+00,-7.728648588993124093e-04,-9.794826925216465696e+00
0.000000000000000000e+00,-7.728648783662378768e-04,-9.794826925948699525e+00
0.000000000000000000e+00,-7.728648978331631274e-04,-9.794826926680935131e+00
0.000000000000000000e+00,-7.728649173000883780e-04,-9.794826927413167184e+00
0.000000000000000000e+00,-7.728649367670131949e-04,-9.794826928145402789e+00
0.000000000000000000e+00,-7.728649562339377950e-04,-9.794826928877636618e+00
0.000000000000000000e+00,-7.728649757008623951e-04,-9.794826929609872224e+00
0.000000000000000000e+00,-7.728649951677866699e-04,-9.794826930342106053e+00
0.000000000000000000e+00,-7.728650146347109447e-04,-9.794826931074341658e+00
0.000000000000000000e+00,-7.728650341016347859e-04,-9.794826931806575487e+00
0.000000000000000000e+00,-7.728650535685586270e-04,-9.794826932538811093e+00
0.000000000000000000e+00,-7.728650730354822513e-04,-9.794826933271044922e+00
0.000000000000000000e+00,-7.728650925024054420e-04,-9.794826934003280527e+00
0.000000000000000000e+00,-7.728651119693286326e-04,-9.794826934735516133e+00
0.000000000000000000e+00,-7.728651314362518232e-04,-9.794826935467746409e+00
0.000000000000000000e+00,-7.728651509031744717e-04,-9.794826936199982015e+00
0.000000000000000000e+00,-7.728651703700971203e-04,-9.794826936932215844e+00
0.000000000000000000e+00,-7.728651898370193351e-04,-9.794826937664451449e+00
0.000000000000000000e+00,-7.728652093039416584e-04,-9.794826938396687055e+00
0.000000000000000000e+00,-7.728652287708637648e-04,-9.794826939128920884e+00
0.000000000000000000e+00,-7.728652482377855459e-04,-9.794826939861156490e+00
0.000000000000000000e+00,-7.728652677047071103e-04,-9.794826940593392095e+00
0.000000000000000000e+00,-7.728652871716285662e-04,-9.794826941325625924e+00
0.000000000000000000e+00,-7.728653066385496968e-04,-9.794826942057861530e+00
0.000000000000000000e+00,-7.728653261054709359e-04,-9.794826942790095359e+00
0.000000000000000000e+00,-7.728653455723916328e-04,-9.794826943522330964e+00
0.000000000000000000e+00,-7.728653650393122214e-04,-9.794826944254566570e+00
0.000000000000000000e+00,-7.728653845062325931e-04,-9.794826944986800399e+00
0.000000000000000000e+00,-7.728654039731529648e-04,-9.794826945719032452e+00
0.000000000000000000e+00,-7.728654234400731196e-04,-9.794826946451268057e+00
0.000000000000000000e+00,-7.728654429069929492e-04,-9.794826947183503663e+00
0.000000000000000000e+00,-7.728654623739125620e-04,-9.794826947915737492e+00
0.000000000000000000e+00,-7.728654818408321747e-04,-9.794826948647971321e+00
0.000000000000000000e+00,-7.728655013077513538e-04,-9.794826949380208703e+00
0.000000000000000000e+00,-7.728655207746705329e-04,-9.794826950112442532e+00
0.000000000000000000e+00,-7.728655402415894951e-04,-9.794826950844676361e+00
0.000000000000000000e+00,-7.728655597085080237e-04,-9.794826951576913743e+00
0.000000000000000000e+00,-7.728655791754265522e-04,-9.794826952309147572e+00
0.000000000000000000e+00,-7.728655986423449724e-04,-9.794826953041383177e+00
0.000000000000000000e+00,-7.728656181092630672e-04,-9.794826953773615230e+00
0.000000000000000000e+00,-7.728656375761810537e-04,-9.794826954505852612e+00
0.000000000000000000e+00,-7.728656570430986065e-04,-9.794826955238086441e+00
0.000000000000000000e+00,-7.728656765100161592e-04,-9.794826955970320270e+00
0.000000000000000000e+00,-7.728656959769333867e-04,-9.794826956702554099e+00
0.000000000000000000e+00,-7.728657154438506142e-04,-9.794826957434791481e+00
0.000000000000000000e+00,-7.728657349107676249e-04,-9.794826958167025310e+00
0.000000000000000000e+00,-7.728657543776843103e-04,-9.794826958899260916e+00
0.000000000000000000e+00,-7.728657738446008873e-04,-9.794826959631496521e+00
0.000000000000000000e+00,-7.728657933115173559e-04,-9.794826960363732127e+00
0.000000000000000000e+00,-7.728658127784337160e-04,-9.794826961095965956e+00
0.000000000000000000e+00,-7.728658322453495341e-04,-9.794826961828201561e+00
0.000000000000000000e+00,-7.728658517122653521e-04,-9.794826962560435391e+00
0.000000000000000000e+00,-7.728658711791807365e-04,-9.794826963292670996e+00
0.000000000000000000e+00,-7.728658906460962293e-04,-9.794826964024906601e+00
9.999999999999997780e-02,-7.728659101130113968e-04,-9.794826964757142207e+00
1.899999999999999467e-01,-7.729432161728842831e-04,-9.794826962341272036e+00
2.709999999999999076e-01,-7.730900801740120008e-04,-9.794826957091313346e+00
3.438999999999998725e-01,-7.732995463296884900e-04,-9.794826949289197060e+00
4.095099999999998741e-01,-7.735653544317238088e-04,-9.794826939188116199e+00
4.685589999999998922e-01,-7.738818702926099228e-04,-9.794826927015552798e+00
5.217030999999998642e-01,-7.742440231434665225e-04,-9.794826912975917566e+00
5.695327899999997889e-01,-7.746472492921923020e-04,-9.794826897252955078e+00
6.125795109999998544e-01,-7.750874414157984862e-04,-9.794826880011862968e+00
6.513215598999998468e-01,-7.755609029235083218e-04,-9.794826861401192630e+00
6.861894039099998288e-01,-7.760643068835451890e-04,-9.794826841554556296e+00
7.175704635189998903e-01,-7.765946590572418576e-04,-9.794826820592142269e+00
7.458134171670999235e-01,-7.771492646297358583e-04,-9.794826798622093378e+00
7.712320754503899645e-01,-7.777256982675970079e-04,-9.794826775741711344e+00
7.941088679053509569e-01,-7.783217771706895695e-04,-9.794826752038558126e+00
8.146979811148158390e-01,-7.789355368188486187e-04,-9.794826727591452453e+00
8.332281830033342329e-01,-7.795652091438873971e-04,-9.794826702471329583e+00
8.499053647030008207e-01,-7.802092028844052635e-04,-9.794826676742049543e+00
8.649148282327007164e-01,-7.808660859051106762e-04,-9.794826650461107675e+00
8.784233454094306781e-01,-7.815345692842162999e-04,-9.794826623680265243e+00
8.905810108684876214e-01,-7.822134929920899950e-04,-9.794826596446123190e+00
9.015229097816388482e-01,-7.829018130020437430e-04,-9.794826568800653277e+00
9.113706188034749189e-01,-7.835985896900398958e-04,-9.794826540781638613e+00
9.202335569231274714e-01,-7.843029773944302152e-04,-9.794826512423114195e+00
9.282102012308147687e-01,-7.850142150197180705e-04,-9.794826483755725732e+00
9.353891811077332807e-01,-7.857316175799453160e-04,-9.794826454807074256e+00
9.418502629969599527e-01,-7.864545685877405998e-04,-9.794826425602018105e+00
9.476652366972639907e-01,-7.871825132044612270e-04,-9.794826396162942928e+00
9.528987130275375916e-01,-7.879149520753224618e-04,-9.794826366510021032e+00
9.576088417247837770e-01,-7.886514357810131852e-04,-9.794826336661408561e+00
9.618479575523053438e-01,-7.893915598441489769e-04,-9.794826306633467539e+00
9.656631617970747872e-01,-7.901349602350800968e-04,-9.794826276440934620e+00
9.690968456173673085e-01,-7.908813093271201307e-04,-9.794826246097080968e+00
9.721871610556305221e-01,-7.916303122562494844e-04,-9.794826215613868570e+00
9.749684449500675143e-01,-7.923817036448504905e-04,-9.794826185002060370e+00
9.774716004550607629e-01,-7.931352446530660774e-04,-9.794826154271362384e+00
9.797244404095546422e-01,-7.938907203250258676e-04,-9.794826123430516063e+00
9.817519963685992224e-01,-7.946479372004477786e-04,-9.794826092487390667e+00
9.835767967317392557e-01,-7.954067211650790638e-04,-9.794826061449080967e+00
9.852191170585653524e-01,-7.961669155160944200e-04,-9.794826030321969412e+00
9.866972053527087727e-01,-7.969283792209531665e-04,-9.794825999111816728e+00
9.880274848174378510e-01,-7.976909853503715963e-04,-9.794825967823808099e+00
9.892247363356940770e-01,-7.984546196679972356e-04,-9.794825936462610017e+00
9.903022627021246249e-01,-7.992191793611163383e-04,-9.794825905032430668e+00
9.912720364319121957e-01,-7.999845718982894708e-04,-9.794825873537064354e+00
9.921448327887210095e-01,-8.007507140012254691e-04,-9.794825841979918124e+00
9.929303495098489307e-01,-8.015175307194660585e-04,-9.794825810364070406e+00
9.936373145588640599e-01,-8.022849545976030094e-04,-9.794825778692295870e+00
9.942735831029776428e-01,-8.030529249257728616e-04,-9.794825746967088520e+00
9.948462247926799229e-01,-8.038213870651035207e-04,-9.794825715190697224e+00
9.953616023134119750e-01,-8.045902918406140593e-04,-9.794825683365147029e+00
9.958254420820707997e-01,-8.053595949948272369e-04,-9.794825651492264029e+00
9.962428978738636642e-01,-8.061292566960180043e-04,-9.794825619573689579e+00
9.966186080864772867e-01,-8.068992410956378394e-04,-9.794825587610912265e+00
9.969567472778295691e-01,-8.076695159299995775e-04,-9.794825555605253697e+00
9.972610725500465900e-01,-8.084400521617886737e-04,-9.794825523557932456e+00
9.975349652950419310e-01,-8.092108236574280548e-04,-9.794825491470016132e+00
9.977814687655377490e-01,-8.099818068967030819e-04,-9.794825459342490603e+00
9.980033218889839963e-01,-8.107529807114264350e-04,-9.794825427176226285e+00
9.982029897000855856e-01,-8.115243260502338950e-04,-9.794825394972026089e+00
9.983826907300770159e-01,-8.122958257669042788e-04,-9.794825362730591678e+00
9.985444216570693587e-01,-8.130674644298427822e-04,-9.794825330452571421e+00
9.986899794913624007e-01,-8.138392281506204784e-04,-9.794825298138544412e+00
9.988209815422262050e-01,-8.146111044296567866e-04,-9.794825265789031121e+00
9.989388833880036289e-01,-8.153830820173341501e-04,-9.794825233404500509e+00
9.990449950492032993e-01,-8.161551507890026438e-04,-9.794825200985377123e+00
9.991404955442829694e-01,-8.169273016324831577e-04,-9.794825168532041104e+00
9.992264459898546614e-01,-8.176995263468196098e-04,-9.794825136044838843e+00
9.993038013908691619e-01,-8.184718175511580427e-04,-9.794825103524075871e+00
9.993734212517821902e-01,-8.192441686027345351e-04,-9.794825070970032854e+00
9.994360791266039268e-01,-8.200165735230681386e-04,-9.794825038382960258e+00
9.994924712139435785e-01,-8.207890269315312693e-04,-9.794825005763083681e+00
9.995432240925492540e-01,-8.215615239855644141e-04,-9.794824973110609179e+00
9.995889016832942842e-01,-8.223340603268706464e-04,-9.794824940425719717e+00
9.996300115149648891e-01,-8.231066320329877848e-04,-9.794824907708578721e+00
9.996670103634683890e-01,-8.238792355737058508e-04,-9.794824874959335403e+00
9.997003093271215057e-01,-8.246518677718417184e-04,-9.794824842178128321e+00
9.997302783944093107e-01,-8.254245257679359736e-04,-9.794824809365072937e+00
9.997572505549683353e-01,-8.261972069884813454e-04,-9.794824776520282938e+00
9.997815254994715239e-01,-8.269699091173268735e-04,-9.794824743643854248e+00
9.998033729495243715e-01,-8.277426300699425267e-04,-9.794824710735873907e+00
9.998230356545719788e-01,-8.285153679702570665e-04,-9.794824677796420076e+00
9.998407320891147254e-01,-8.292881211298120921e-04,-9.794824644825570914e+00
9.998566588802032529e-01,-8.300608880290007889e-04,-9.794824611823381488e+00
9.998709929921829609e-01,-8.308336673001831063e-04,-9.794824578789921077e+00
9.998838936929647092e-01,-8.316064577124886040e-04,-9.794824545725237641e+00
9.998955043236682494e-01,-8.323792581581397837e-04,-9.794824512629375590e+00
9.999059538913014356e-01,-8.331520676401424916e-04,-9.794824479502377557e+00
9.999153585021712809e-01,-8.339248852612079739e-04,-9.794824446344286173e+00
9.999238226519541195e-01,-8.346977102137823372e-04,-9.794824413155133414e+00
9.999314403867587409e-01,-8.354705417710727149e-04,-9.794824379934949476e+00
9.999382963480828446e-01,-8.362433792789710461e-04,-9.794824346683766336e+00
9.999444667132745268e-01,-8.370162221487864509e-04,-9.794824313401603533e+00
9.999500200419471074e-01,-8.377890698507028293e-04,-9.794824280088489488e+00
9.999550180377524411e-01,-8.385619219078914270e-04,-9.794824246744438412e+00
9.999595162339771637e-01,-8.393347778912120137e-04,-9.794824213369476951e+00
9.999635646105794473e-01,-8.401076374144445620e-04,-9.794824179963612210e+00
9.999672081495214471e-01,-8.408805001299962407e-04,-9.794824146526869058e+00
9.999704873345692802e-01,-8.416533657250404622e-04,-9.794824113059252824e+00
9.999734386011123188e-01,-8.424262339180382201e-04,-9.794824079560783048e+00
9.999760947410011314e-01,-8.431991044556102740e-04,-9.794824046031457954e+00
9.999784852669010293e-01,-8.439719771097213682e-04,-9.794824012471304187e+00
9.999806367402108709e-01,-8.447448516751459094e-04,-9.794823978880319970e+00
9.999825730661897616e-01,-8.455177279671861543e-04,-9.794823945258515963e+00
9.999843157595708076e-01,-8.462906058196201405e-04,-9.794823911605897493e+00
9.999858841836136714e-01,-8.470634850828543142e-04,-9.794823877922473443e+00
9.999872957652522487e-01,-8.478363656222593888e-04,-9.794823844208249142e+00
9.999885661887270016e-01,-8.486092473166762049e-04,-9.794823810463231695e+00
9.999897095698543348e-01,-8.493821300570658997e-04,-9.794823776687421102e+00
9.999907386128689124e-01,-8.501550137453004787e-04,-9.794823742880824469e+00
9.999916647515819657e-01,-8.509278982930698317e-04,-9.794823709043448901e+00
9.999924982764237802e-01,-8.517007836209013975e-04,-9.794823675175292621e+00
9.999932484487813467e-01,-8.524736696572750207e-04,-9.794823641276359183e+00
9.999939236039031565e-01,-8.532465563378288827e-04,-9.794823607346653915e+00
9.999945312435127853e-01,-8.540194436046426264e-04,-9.794823573386180371e+00
9.999950781191615512e-01,-8.547923314055944251e-04,-9.794823539394936773e+00
9.999955703072453961e-01,-8.555652196937801749e-04,-9.794823505372928452e+00
9.999960132765208787e-01,-8.563381084269918852e-04,-9.794823471320153629e+00
9.999964119488687908e-01,-8.571109975672485445e-04,-9.794823437236617636e+00
9.999967707539818562e-01,-8.578838870803728476e-04,-9.794823403122322247e+00
9.999970936785836928e-01,-8.586567769356109664e-04,-9.794823368977265687e+00
9.999973843107252680e-01,-8.594296671052905918e-04,-9.794823334801451509e+00
9.999976458796527856e-01,-8.602025575645121536e-04,-9.794823300594881488e+00
9.999978812916875404e-01,-8.609754482908722403e-04,-9.794823266357555624e+00
9.999980931625187530e-01,-8.617483392642132567e-04,-9.794823232089466813e+00
9.999982838462668777e-01,-8.625212304663993192e-04,-9.794823197790631042e+00
9.999984554616402344e-01,-8.632941218811141610e-04,-9.794823163461041204e+00
9.999986099154761776e-01,-8.640670134936789858e-04,-9.794823129100697301e+00
9.999987489239285932e-01,-8.648399052908882110e-04,-9.794823094709599332e+00
9.999988740315357560e-01,-8.656127972608633177e-04,-9.794823060287749072e+00
9.999989866283821582e-01,-8.663856893929192766e-04,-9.794823025835150077e+00
9.999990879655439313e-01,-8.671585816774448523e-04,-9.794822991351798791e+00
9.999991791689895049e-01,-8.679314741057966767e-04,-9.794822956837693440e+00
9.999992612520905988e-01,-8.687043666702008032e-04,-9.794822922292842904e+00
9.999993351268815500e-01,-8.694772593636668385e-04,-9.794822887717238302e+00
9.999994016141934283e-01,-8.702501521799095542e-04,-9.794822853110886740e+00
9.999994614527740744e-01,-8.710230451132775463e-04,-9.794822818473784665e+00
9.999995153074966447e-01,-8.717959381586906772e-04,-9.794822783805933852e+00
9.999995637767469248e-01,-8.725688313115826126e-04,-9.794822749107332527e+00
9.999996073990722323e-01,-8.733417245678494305e-04,-9.794822714377986017e+00
9.999996466591649646e-01,-8.741146179238037592e-04,-9.794822679617883665e+00
9.999996819932485126e-01,-8.748875113761321685e-04,-9.794822644827039682e+00
9.999997137939236058e-01,-8.756604049218587402e-04,-9.794822610005441632e+00
9.999997424145312674e-01,-8.764332985583114582e-04,-9.794822575153096622e+00
9.999997681730781185e-01,-8.772061922830908746e-04,-9.794822540270008204e+00
9.999997913557703288e-01,-8.779790860940430049e-04,-9.794822505356163944e+00
9.999998122201932960e-01,-8.787519799892358008e-04,-9.794822470411579829e+00
9.999998309981739109e-01,-8.795248739669360568e-04,-9.794822435436243424e+00
9.999998478983564976e-01,-8.802977680255892438e-04,-9.794822400430158282e+00
9.999998631085208478e-01,-8.810706621638024873e-04,-9.794822365393329733e+00
9.999998767976687741e-01,-8.818435563803280874e-04,-9.794822330325748894e+00
9.999998891179019411e-01,-8.826164506740493158e-04,-9.794822295227422870e+00
9.999999002061117359e-01,-8.833893450439661045e-04,-9.794822260098346334e+00
9.999999101855006067e-01,-8.841622394891847456e-04,-9.794822224938524613e+00
9.999999191669505239e-01,-8.849351340089065075e-04,-9.794822189747955932e+00
9.999999272502554382e-01,-8.857080286024193944e-04,-9.794822154526636737e+00
9.999999345252298388e-01,-8.864809232690866545e-04,-9.794822119274572358e+00
9.999999410727068438e-01,-8.872538180083422259e-04,-9.794822083991761019e+00
9.999999469654361484e-01,-8.880267128196823881e-04,-9.794822048678202719e+00
9.999999522688924891e-01,-8.887996077026590405e-04,-9.794822013333895683e+00
9.999999570420032846e-01,-8.895725026568761240e-04,-9.794821977958838133e+00
9.999999613378030006e-01,-8.903453976819814897e-04,-9.794821942553037175e+00
9.999999652040226783e-01,-8.911182927776644053e-04,-9.794821907116487480e+00
9.999999686836203994e-01,-8.918911879436517602e-04,-9.794821871649190825e+00
9.999999718152583483e-01,-8.926640831797031869e-04,-9.794821836151150762e+00
9.999999746337324691e-01,-8.934369784856078080e-04,-9.794821800622356633e+00
9.999999771703592666e-01,-8.942098738611818512e-04,-9.794821765062817320e+00
9.999999794533233066e-01,-8.949827693062663726e-04,-9.794821729472532823e+00
9.999999815079909649e-01,-8.957556648207235699e-04,-9.794821693851501365e+00
9.999999833571918684e-01,-8.965285604044350484e-04,-9.794821658199719394e+00
9.999999850214726926e-01,-8.973014560573008445e-04,-9.794821622517190463e+00
9.999999865193254234e-01,-8.980743517792362822e-04,-9.794821586803918123e+00
9.999999878673928588e-01,-8.988472475701712134e-04,-9.794821551059895270e+00
9.999999890806535729e-01,-8.996201434300481756e-04,-9.794821515285125457e+00
9.999999901725882268e-01,-9.003930393588214154e-04,-9.794821479479610460e+00
9.999999911553294485e-01,-9.011659353564553708e-04,-9.794821443643343173e+00
9.999999920397965036e-01,-9.019388314229244549e-04,-9.794821407776332478e+00
9.999999928358168644e-01,-9.027117275582108866e-04,-9.794821371878576599e+00
9.999999935522351224e-01,-9.034846237623044745e-04,-9.794821335950068431e+00
9.999999941970115769e-01,-9.042575200352023996e-04,-9.794821299990816854e+00
9.999999947773103859e-01,-9.050304163769074808e-04,-9.794821264000818317e+00
9.999999952995793917e-01,-9.058033127874286087e-04,-9.794821227980069267e+00
9.999999957696213970e-01,-9.065762092667792272e-04,-9.794821191928573256e+00
9.999999961926592240e-01,-9.073491058149772259e-04,-9.794821155846333838e+00
9.999999965733933349e-01,-9.081220024320443970e-04,-9.794821119733343906e+00
9.999999969160540125e-01,-9.088948991180073036e-04,-9.794821083589608790e+00
9.999999972244486557e-01,-9.096677958728941350e-04,-9.794821047415126714e+00
9.999999975020037457e-01,-9.104406926967369834e-04,-9.794821011209895900e+00
9.999999977518033711e-01,-9.112135895895706519e-04,-9.794820974973914574e+00
9.999999979766229785e-01,-9.119864865514317864e-04,-9.794820938707189839e+00
9.999999981789606807e-01,-9.127593835823600687e-04,-9.794820902409719920e+00
9.999999983610645682e-01,-9.135322806823955059e-04,-9.794820866081499489e+00
9.999999985249581336e-01,-9.143051778515820082e-04,-9.794820829722532096e+00
9.999999986724623646e-01,-9.150780750899629437e-04,-9.794820793332819520e+00
9.999999988052161726e-01,-9.158509723975843909e-04,-9.794820756912358206e+00
9.999999989246945997e-01,-9.166238697744932959e-04,-9.794820720461148156e+00
9.999999990322251398e-01,-9.173967672207383392e-04,-9.794820683979194698e+00
9.999999991290026147e-01,-9.181696647363679848e-04,-9.794820647466492503e+00
9.999999992161023865e-01,-9.189425623214326480e-04,-9.794820610923043347e+00
9.999999992944921257e-01,-9.197154599759828526e-04,-9.794820574348845454e+00
9.999999993650429131e-01,-9.204883577000708573e-04,-9.794820537743898825e+00
9.999999994285385663e-01,-9.212612554937485952e-04,-9.794820501108208788e+00
9.999999994856847430e-01,-9.220341533570694092e-04,-9.794820464441770014e+00
9.999999995371162687e-01,-9.228070512900863167e-04,-9.794820427744584279e+00
9.999999995834046862e-01,-9.235799492928535278e-04,-9.794820391016649808e+00
9.999999996250642509e-01,-9.243528473654255779e-04,-9.794820354257971928e+00
9.999999996625578147e-01,-9.251257455078571107e-04,-9.794820317468541759e+00
9.999999996963020443e-01,-9.258986437202032039e-04,-9.794820280648366406e+00
9.999999997266718621e-01,-9.266715420025193684e-04,-9.794820243797445869e+00
9.999999997540046648e-01,-9.274444403548617660e-04,-9.794820206915776595e+00
9.999999997786042094e-01,-9.282173387772864499e-04,-9.794820170003358584e+00
9.999999998007438329e-01,-9.289902372698489313e-04,-9.794820133060197165e+00
9.999999998206694496e-01,-9.297631358326065645e-04,-9.794820096086287009e+00
9.999999998386025490e-01,-9.305360344656157280e-04,-9.794820059081626340e+00
9.999999998547423052e-01,-9.313089331689336677e-04,-9.794820022046224040e+00
9.999999998692680192e-01,-9.320818319426164367e-04,-9.794819984980069449e+00
9.999999998823412284e-01,-9.328547307867219316e-04,-9.794819947883171452e+00
9.999999998941071500e-01,-9.336276297013072897e-04,-9.794819910755524717e+00
9.999999999046964572e-01,-9.344005286864299738e-04,-9.794819873597127469e+00
9.999999999142268337e-01,-9.351734277421473382e-04,-9.794819836407988589e+00
9.999999999228041947e-01,-9.359463268685167371e-04,-9.794819799188100973e+00
9.999999999305237974e-01,-9.367192260655962839e-04,-9.794819761937462843e+00
9.999999999374714621e-01,-9.374921253334436580e-04,-9.794819724656081306e+00
9.999999999437243492e-01,-9.382650246721162138e-04,-9.794819687343952808e+00
9.999999999493519587e-01,-9.390379240816721729e-04,-9.794819650001075573e+00
9.999999999544167961e-01,-9.398108235621695401e-04,-9.794819612627449601e+00
9.999999999589751498e-01,-9.405837231136663203e-04,-9.794819575223080221e+00
9.999999999630776459e-01,-9.413566227362199761e-04,-9.794819537787960329e+00
9.999999999667699146e-01,-9.421295224298890545e-04,-9.794819500322095251e+00
9.999999999700929232e-01,-9.429024221947312351e-04,-9.794819462825481438e+00
9.999999999730836420e-01,-9.436753220308052815e-04,-9.794819425298120663e+00
9.999999999757752667e-01,-9.444482219381687650e-04,-9.794819387740014704e+00
9.999999999781977733e-01,-9.452211219168801240e-04,-9.794819350151158233e+00
9.999999999803780293e-01,-9.459940219669974717e-04,-9.794819312531558353e+00
9.999999999823402375e-01,-9.467669220885789215e-04,-9.794819274881206184e+00
9.999999999841061582e-01,-9.475398222816828033e-04,-9.794819237200110607e+00
9.999999999856955535e-01,-9.483127225463674473e-04,-9.794819199488266293e+00
9.999999999871259648e-01,-9.490856228826909666e-04,-9.794819161745676794e+00
9.999999999884133794e-01,-9.498585232907116914e-04,-9.794819123972338559e+00
9.999999999895720082e-01,-9.506314237704878434e-04,-9.794819086168253364e+00
9.999999999906148407e-01,-9.514043243220778609e-04,-9.794819048333421208e+00
9.999999999915533122e-01,-9.521772249455400742e-04,-9.794819010467842091e+00
9.999999999923979699e-01,-9.529501256409327048e-04,-9.794818972571514237e+00
9.999999999931581396e-01,-9.537230264083137576e-04,-9.794818934644439423e+00
9.999999999938423700e-01,-9.544959272477422131e-04,-9.794818896686619425e+00
9.999999999944580997e-01,-9.552688281592758594e-04,-9.794818858698050690e+00
9.999999999950123231e-01,-9.560417291429733518e-04,-9.794818820678736770e+00
9.999999999955110352e-01,-9.568146301988930203e-04,-9.794818782628674114e+00
9.999999999959598984e-01,-9.575875313270929782e-04,-9.794818744547862721e+00
9.999999999963639086e-01,-9.583604325276322061e-04,-9.794818706436306144e+00
9.999999999967275066e-01,-9.591333338005680583e-04,-9.794818668294000830e+00
9.999999999970548004e-01,-9.599062351459600574e-04,-9.794818630120950331e+00
9.999999999973493425e-01,-9.606791365638656663e-04,-9.794818591917152872e+00
9.999999999976143528e-01,-9.614520380543436487e-04,-9.794818553682606677e+00
9.999999999978529397e-01,-9.622249396174524429e-04,-9.794818515417313520e+00
9.999999999980676568e-01,-9.629978412532501624e-04,-9.794818477121271627e+00
9.999999999982608356e-01,-9.637707429617953540e-04,-9.794818438794486326e+00
9.999999999984346966e-01,-9.645436447431462394e-04,-9.794818400436950512e+00
9.999999999985912380e-01,-9.653165465973613654e-04,-9.794818362048665961e+00
9.999999999987321253e-01,-9.660894485244990622e-04,-9.794818323629638002e+00
9.999999999988589128e-01,-9.668623505246178767e-04,-9.794818285179861306e+00
9.999999999989730437e-01,-9.676352525977762473e-04,-9.794818246699337649e+00
9.999999999990757393e-01,-9.684081547440320705e-04,-9.794818208188067032e+00
9.999999999991681099e-01,-9.691810569634440016e-04,-9.794818169646051231e+00
9.999999999992512656e-01,-9.699539592560705876e-04,-9.794818131073283141e+00
9.999999999993260946e-01,-9.707268616219702669e-04,-9.794818092469773418e+00
9.999999999993934852e-01,-9.714997640612011527e-04,-9.794818053835511407e+00
9.999999999994541033e-01,-9.722726665738217920e-04,-9.794818015170507763e+00
9.999999999995087263e-01,-9.730455691598900812e-04,-9.794817976474751831e+00
9.999999999995577982e-01,-9.738184718194655429e-04,-9.794817937748248937e+00
9.999999999996019850e-01,-9.745913745526055315e-04,-9.794817898991004412e+00
9.999999999996417310e-01,-9.753642773593691360e-04,-9.794817860203007598e+00
9.999999999996775912e-01,-9.761371802398141444e-04,-9.794817821384265599e+00
9.999999999997097877e-01,-9.769100831939991035e-04,-9.794817782534774864e+00
9.999999999997387645e-01,-9.776829862219828856e-04,-9.794817743654537168e+00
9.999999999997648548e-01,-9.784558893238233870e-04,-9.794817704743550735e+00
9.999999999997883915e-01,-9.792287924995791547e-04,-9.794817665801820894e+00
9.999999999998095968e-01,-9.800016957493087356e-04,-9.794817626829342316e+00
9.999999999998285816e-01,-9.807745990730702430e-04,-9.794817587826118555e+00
9.999999999998456790e-01,-9.815475024709222236e-04,-9.794817548792144279e+00
9.999999999998611111e-01,-9.823204059429230077e-04,-9.794817509727421267e+00
9.999999999998749889e-01,-9.830933094891311421e-04,-9.794817470631956624e+00
9.999999999998875344e-01,-9.838662131096049569e-04,-9.794817431505741467e+00
9.999999999998987477e-01,-9.846391168044025654e-04,-9.794817392348779350e+00
9.999999999999088507e-01,-9.854120205735831649e-04,-9.794817353161070272e+00
9.999999999999179545e-01,-9.861849244172042183e-04,-9.794817313942614234e+00
9.999999999999261702e-01,-9.869578283353247061e-04,-9.794817274693413012e+00
9.999999999999334976e-01,-9.877307323280027414e-04,-9.794817235413461276e+00
9.999999999999401590e-01,-9.885036363952966545e-04,-9.794817196102764356e+00
9.999999999999461542e-01,-9.892765405372654260e-04,-9.794817156761316923e+00
9.999999999999514833e-01,-9.900494447539667352e-04,-9.794817117389127858e+00
9.999999999999563682e-01,-9.908223490454591293e-04,-9.794817077986186504e+00
9.999999999999606981e-01,-9.915952534118015887e-04,-9.794817038552499966e+00
9.999999999999645839e-01,-9.923681578530520100e-04,-9.794816999088064691e+00
9.999999999999681366e-01,-9.931410623692685062e-04,-9.794816959592884231e+00
9.999999999999713562e-01,-9.939139669605100581e-04,-9.794816920066956811e+00
9.999999999999742428e-01,-9.946868716268349956e-04,-9.794816880510282431e+00
9.999999999999767963e-01,-9.954597763683012152e-04,-9.794816840922857537e+00
9.999999999999791278e-01,-9.962326811849676975e-04,-9.794816801304689236e+00
9.999999999999812372e-01,-9.970055860768925558e-04,-9.794816761655772197e+00
9.999999999999831246e-01,-9.977784910441343368e-04,-9.794816721976106422e+00
9.999999999999847899e-01,-9.985513960867513708e-04,-9.794816682265697239e+00
9.999999999999863443e-01,-9.993243012048015541e-04,-9.794816642524539319e+00
9.999999999999876765e-01,-1.000097206398344084e-03,-9.794816602752630885e+00
9.999999999999888978e-01,-1.000870111667437074e-03,-9.794816562949977268e+00
9.999999999999900080e-01,-1.001643017012139071e-03,-9.794816523116576690e+00
9.999999999999910072e-01,-1.002415922432507754e-03,-9.794816483252432704e+00
9.999999999999918954e-01,-1.003188827928602322e-03,-9.794816443357536428e+00
9.999999999999926725e-01,-1.003961733500480886e-03,-9.794816403431894969e+00
9.999999999999934497e-01,-1.004734639148201995e-03,-9.794816363475504772e+00
9.999999999999941158e-01,-1.005507544871823760e-03,-9.794816323488367615e+00
9.999999999999946709e-01,-1.006280450671404730e-03,-9.794816283470485274e+00
9.999999999999952260e-01,-1.007053356547003451e-03,-9.794816243421854196e+00
9.999999999999956701e-01,-1.007826262498677820e-03,-9.794816203342477934e+00
9.999999999999961142e-01,-1.008599168526487034e-03,-9.794816163232351158e+00
9.999999999999964473e-01,-1.009372074630488988e-03,-9.794816123091479199e+00
9.999999999999967804e-01,-1.010144980810741798e-03,-9.794816082919862055e+00
9.999999999999971134e-01,-1.010917887067304443e-03,-9.794816042717494398e+00
9.999999999999974465e-01,-1.011690793400235036e-03,-9.794816002484381556e+00
9.999999999999976685e-01,-1.012463699809592124e-03,-9.794815962220519978e+00
9.999999999999978906e-01,-1.013236606295434038e-03,-9.794815921925909663e+00
9.999999999999981126e-01,-1.014009512857818891e-03,-9.794815881600555940e+00
9.999999999999983347e-01,-1.014782419496805446e-03,-9.794815841244453480e+00
9.999999999999984457e-01,-1.015555326212452250e-03,-9.794815800857605836e+00
9.999999999999985567e-01,-1.016328233004817200e-03,-9.794815760440009456e+00
9.999999999999986677e-01,-1.017101139873958626e-03,-9.794815719991664338e+00
9.999999999999987788e-01,-1.017874046819935725e-03,-9.794815679512572260e+00
9.999999999999988898e-01,-1.018646953842806393e-03,-9.794815639002733221e+00
9.999999999999990008e-01,-1.019419860942628745e-03,-9.794815598462150774e+00
9.999999999999991118e-01,-1.020192768119461543e-03,-9.794815557890814262e+00
9.999999999999992228e-01,-1.020965675373363118e-03,-9.794815517288734341e+00
9.999999999999993339e-01,-1.021738582704392016e-03,-9.794815476655907460e+00
9.999999999999994449e-01,-1.022511490112606352e-03,-9.794815435992335395e+00
9.999999999999994449e-01,-1.023284397598065104e-03,-9.794815395298011040e+00
9.999999999999994449e-01,-1.024057305160825737e-03,-9.794815354572943278e+00
9.999999999999994449e-01,-1.024830212800947014e-03,-9.794815313817126778e+00
9.999999999999994449e-01,-1.025603120518487916e-03,-9.794815273030565095e+00
9.999999999999994449e-01,-1.026376028313505688e-03,-9.794815232213254674e+00
9.999999999999994449e-01,-1.027148936186060178e-03,-9.794815191365197293e+00
9.999999999999994449e-01,-1.027921844136208849e-03,-9.794815150486392952e+00
9.999999999999994449e-01,-1.028694752164010249e-03,-9.794815109576839873e+00
9.999999999999994449e-01,-1.029467660269522706e-03,-9.794815068636541611e+00
9.999999999999994449e-01,-1.030240568452804768e-03,-9.794815027665494611e+00
9.999999999999994449e-01,-1.031013476713914766e-03,-9.794814986663702427e+00
9.999999999999994449e-01,-1.031786385052911028e-03,-9.794814945631161507e+00
9.999999999999994449e-01,-1.032559293469852320e-03,-9.794814904567871849e+00
9.999999999999994449e-01,-1.033332201964796753e-03,-9.794814863473838784e+00
9.999999999999994449e-01,-1.034105110537802659e-03,-9.794814822349056982e+00
9.999999999999994449e-01,-1.034878019188928151e-03,-9.794814781193524666e+00
9.999999999999994449e-01,-1.035650927918232208e-03,-9.794814740007250720e+00
9.999999999999994449e-01,-1.036423836725773378e-03,-9.794814698790228036e+00
9.999999999999994449e-01,-1.037196745611609341e-03,-9.794814657542454839e+00
9.999999999999994449e-01,-1.037969654575798860e-03,-9.794814616263934681e+00
9.999999999999994449e-01,-1.038742563618400699e-03,-9.794814574954672892e+00
9.999999999999994449e-01,-1.039515472739472321e-03,-9.794814533614657037e+00
9.999999999999994449e-01,-1.040288381939072923e-03,-9.794814492243897774e+00
9.999999999999994449e-01,-1.041061291217260619e-03,-9.794814450842393327e+00
9.999999999999994449e-01,-1.041834200574093955e-03,-9.794814409410138367e+00
9.999999999999994449e-01,-1.042607110009631044e-03,-9.794814367947136446e+00
9.999999999999994449e-01,-1.043380019523930651e-03,-9.794814326453387565e+00
9.999999999999994449e-01,-1.044152929117050889e-03,-9.794814284928893500e+00
9.999999999999994449e-01,-1.044925838789050303e-03,-9.794814243373650697e+00
9.999999999999994449e-01,-1.045698748539987226e-03,-9.794814201787657382e+00
9.999999999999994449e-01,-1.046471658369920420e-03,-9.794814160170920658e+00
9.999999999999994449e-01,-1.047244568278907348e-03,-9.794814118523436974e+00
9.999999999999994449e-01,-1.048017478267007207e-03,-9.794814076845204553e+00
9.999999999999994449e-01,-1.048790388334278111e-03,-9.794814035136226948e+00
9.999999999999994449e-01,-1.049563298480778823e-03,-9.794813993396500607e+00
9.999999999999994449e-01,-1.050336208706567241e-03,-9.794813951626027304e+00
9.999999999999994449e-01,-1.051109119011702127e-03,-9.794813909824807041e+00
9.999999999999994449e-01,-1.051882029396241595e-03,-9.794813867992838041e+00
9.999999999999994449e-01,-1.052654939860244191e-03,-9.794813826130125634e+00
9.999999999999994449e-01,-1.053427850403768247e-03,-9.794813784236662713e+00
9.999999999999994449e-01,-1.054200761026872525e-03,-9.794813742312454607e+00
9.999999999999994449e-01,-1.054973671729614705e-03,-9.794813700357495989e+00
9.999999999999994449e-01,-1.055746582512053769e-03,-9.794813658371792187e+00
9.999999999999994449e-01,-1.056519493374247828e-03,-9.794813616355343200e+00
9.999999999999994449e-01,-1.057292404316255430e-03,-9.794813574308145476e+00
9.999999999999994449e-01,-1.058065315338135122e-03,-9.794813532230197239e+00
9.999999999999994449e-01,-1.058838226439944800e-03,-9.794813490121505595e+00
9.999999999999994449e-01,-1.059611137621743662e-03,-9.794813447982068766e+00
9.999999999999994449e-01,-1.060384048883589170e-03,-9.794813405811881424e+00
9.999999999999994449e-01,-1.061156960225540305e-03,-9.794813363610947121e+00
9.999999999999994449e-01,-1.061929871647655397e-03,-9.794813321379265858e+00
9.999999999999994449e-01,-1.062702783149992777e-03,-9.794813279116835858e+00
9.999999999999994449e-01,-1.063475694732610773e-03,-9.794813236823662450e+00
9.999999999999994449e-01,-1.064248606395567717e-03,-9.794813194499738529e+00
9.999999999999994449e-01,-1.065021518138922372e-03,-9.794813152145069424e+00
9.999999999999994449e-01,-1.065794429962732852e-03,-9.794813109759653358e+00
9.999999999999994449e-01,-1.066567341867057702e-03,-9.794813067343490331e+00
9.999999999999994449e-01,-1.067340253851955254e-03,-9.794813024896576792e+00
9.999999999999994449e-01,-1.068113165917483620e-03,-9.794812982418916292e+00
9.999999999999994449e-01,-1.068886078063701565e-03,-9.794812939910512384e+00
9.999999999999994449e-01,-1.069658990290667635e-03,-9.794812897371359739e+00
9.999999999999994449e-01,-1.070431902598439726e-03,-9.794812854801458357e+00
9.999999999999994449e-01,-1.071204814987076603e-03,-9.794812812200810015e+00
9.999999999999994449e-01,-1.071977727456636378e-03,-9.794812769569418265e+00
9.999999999999994449e-01,-1.072750640007178033e-03,-9.794812726907276001e+00
9.999999999999994449e-01,-1.073523552638759029e-03,-9.794812684214386778e+00
9.999999999999994449e-01,-1.074296465351438565e-03,-9.794812641490752370e+00
9.999999999999994449e-01,-1.075069378145274536e-03,-9.794812598736367448e+00
9.999999999999994449e-01,-1.075842291020325924e-03,-9.794812555951237343e+00
9.999999999999994449e-01,-1.076615203976650625e-03,-9.794812513135360277e+00
9.999999999999994449e-01,-1.077388117014307185e-03,-9.794812470288736250e+00
9.999999999999994449e-01,-1.078161030133353935e-03,-9.794812427411365263e+00
9.999999999999994449e-01,-1.078933943333849205e-03,-9.794812384503245539e+00
9.999999999999994449e-01,-1.079706856615851541e-03,-9.794812341564378855e+00
9.999999999999994449e-01,-1.080479769979419925e-03,-9.794812298594763433e+00
9.999999999999994449e-01,-1.081252683424611602e-03,-9.794812255594402828e+00
9.999999999999994449e-01,-1.082025596951485553e-03,-9.794812212563295262e+00
9.999999999999994449e-01,-1.082798510560100107e-03,-9.794812169501440735e+00
9.999999999999994449e-01,-1.083571424250513813e-03,-9.794812126408837472e+00
9.999999999999994449e-01,-1.084344338022785216e-03,-9.794812083285487248e+00
9.999999999999994449e-01,-1.085117251876972213e-03,-9.794812040131391839e+00
9.999999999999994449e-01,-1.085890165813133568e-03,-9.794811996946547694e+00
9.999999999999994449e-01,-1.086663079831327395e-03,-9.794811953730956589e+00
9.999999999999994449e-01,-1.087435993931612239e-03,-9.794811910484618522e+00
9.999999999999994449e-01,-1.088208908114046648e-03,-9.794811867207533496e+00
9.999999999999994449e-01,-1.088981822378688952e-03,-9.794811823899699732e+00
9.999999999999994449e-01,-1.089754736725597264e-03,-9.794811780561120784e+00
9.999999999999994449e-01,-1.090527651154830349e-03,-9.794811737191794876e+00
9.999999999999994449e-01,-1.091300565666446318e-03,-9.794811693791720231e+00
9.999999999999994449e-01,-1.092073480260503937e-03,-9.794811650360898625e+00
9.999999999999994449e-01,-1.092846394937061318e-03,-9.794811606899328282e+00
9.999999999999994449e-01,-1.093619309696176791e-03,-9.794811563407014532e+00
9.999999999999994449e-01,-1.094392224537908903e-03,-9.794811519883953821e+00
9.999999999999994449e-01,-1.095165139462315985e-03,-9.794811476330140820e+00
9.999999999999994449e-01,-1.095938054469456583e-03,-9.794811432745584412e+00
9.999999999999994449e-01,-1.096710969559389027e-03,-9.794811389130279267e+00
9.999999999999994449e-01,-1.097483884732171648e-03,-9.794811345484228937e+00
9.999999999999994449e-01,-1.098256799987862558e-03,-9.794811301807429871e+00
9.999999999999994449e-01,-1.099029715326520955e-03,-9.794811258099882068e+00
9.999999999999994449e-01,-1.099802630748204519e-03,-9.794811214361589080e+00
9.999999999999994449e-01,-1.100575546252972013e-03,-9.794811170592550909e+00
9.999999999999994449e-01,-1.101348461840881551e-03,-9.794811126792762224e+00
9.999999999999994449e-01,-1.102121377511991896e-03,-9.794811082962226578e+00
9.999999999999994449e-01,-1.102894293266361162e-03,-9.794811039100943972e+00
9.999999999999994449e-01,-1.103667209104047895e-03,-9.794810995208916182e+00
9.999999999999994449e-01,-1.104440125025109992e-03,-9.794810951286139655e+00
9.999999999999994449e-01,-1.105213041029606434e-03,-9.794810907332616168e+00
9.999999999999994449e-01,-1.105985957117595767e-03,-9.794810863348343943e+00
9.999999999999994449e-01,-1.106758873289135888e-03,-9.794810819333326535e+00
9.999999999999994449e-01,-1.107531789544285560e-03,-9.794810775287563942e+00
9.999999999999994449e-01,-1.108304705883102897e-03,-9.794810731211050836e+00
9.999999999999994449e-01,-1.109077622305646446e-03,-9.794810687103788993e+00
9.999999999999994449e-01,-1.109850538811974537e-03,-9.794810642965783742e+00
9.999999999999994449e-01,-1.110623455402145500e-03,-9.794810598797031531e+00
9.999999999999994449e-01,-1.111396372076217881e-03,-9.794810554597530583e+00
9.999999999999994449e-01,-1.112169288834250229e-03,-9.794810510367282674e+00
9.999999999999994449e-01,-1.112942205676300438e-03,-9.794810466106287805e+00
9.999999999999994449e-01,-1.113715122602427490e-03,-9.794810421814544199e+00
9.999999999999994449e-01,-1.114488039612689498e-03,-9.794810377492055409e+00
9.999999999999994449e-01,-1.115260956707144792e-03,-9.794810333138816105e+00
9.999999999999994449e-01,-1.116033873885851702e-03,-9.794810288754831618e+00
9.999999999999994449e-01,-1.116806791148868992e-03,-9.794810244340101946e+00
9.999999999999994449e-01,-1.117579708496254775e-03,-9.794810199894623537e+00
9.999999999999994449e-01,-1.118352625928067381e-03,-9.794810155418398168e+00
9.999999999999994449e-01,-1.119125543444365574e-03,-9.794810110911425838e+00
9.999999999999994449e-01,-1.119898461045207468e-03,-9.794810066373706547e+00
9.999999999999994449e-01,-1.120671378730651608e-03,-9.794810021805240297e+00
9.999999999999994449e-01,-1.121444296500755892e-03,-9.794809977206025309e+00
9.999999999999994449e-01,-1.122217214355579300e-03,-9.794809932576065137e+00
9.999999999999994449e-01,-1.122990132295180379e-03,-9.794809887915356228e+00
9.999999999999994449e-01,-1.123763050319616808e-03,-9.794809843223898582e+00
9.999999999999994449e-01,-1.124535968428947569e-03,-9.794809798501695752e+00
9.999999999999994449e-01,-1.125308886623230774e-03,-9.794809753748744185e+00
9.999999999999994449e-01,-1.126081804902524970e-03,-9.794809708965047435e+00
9.999999999999994449e-01,-1.126854723266888488e-03,-9.794809664150601947e+00
9.999999999999994449e-01,-1.127627641716379874e-03,-9.794809619305413051e+00
9.999999999999994449e-01,-1.128400560251057241e-03,-9.794809574429471866e+00
9.999999999999994449e-01,-1.129173478870979137e-03,-9.794809529522785496e+00
9.999999999999994449e-01,-1.129946397576204109e-03,-9.794809484585350390e+00
9.999999999999994449e-01,-1.130719316366790052e-03,-9.794809439617171876e+00
9.999999999999994449e-01,-1.131492235242795947e-03,-9.794809394618244625e+00
9.999999999999994449e-01,-1.132265154204279908e-03,-9.794809349588568637e+00
9.999999999999994449e-01,-1.133038073251300699e-03,-9.794809304528147464e+00
9.999999999999994449e-01,-1.133810992383915998e-03,-9.794809259436977555e+00
9.999999999999994449e-01,-1.134583911602185004e-03,-9.794809214315064239e+00
9.999999999999994449e-01,-1.135356830906165179e-03,-9.794809169162398632e+00
9.999999999999994449e-01,-1.136129750295915937e-03,-9.794809123978987841e+00
9.999999999999994449e-01,-1.136902669771494958e-03,-9.794809078764828314e+00
9.999999999999994449e-01,-1.137675589332961005e-03,-9.794809033519925379e+00
9.999999999999994449e-01,-1.138448508980372193e-03,-9.794808988244273706e+00
9.999999999999994449e-01,-1.139221428713787284e-03,-9.794808942937873297e+00
9.999999999999994449e-01,-1.139994348533264175e-03,-9.794808897600727704e+00
9.999999999999994449e-01,-1.140767268438862064e-03,-9.794808852232833374e+00
9.999999999999994449e-01,-1.141540188430638196e-03,-9.794808806834192083e+00
9.999999999999994449e-01,-1.142313108508651986e-03,-9.794808761404803832e+00
9.999999999999994449e-01,-1.143086028672961330e-03,-9.794808715944666844e+00
9.999999999999994449e-01,-1.143858948923625208e-03,-9.794808670453786448e+00
9.999999999999994449e-01,-1.144631869260701084e-03,-9.794808624932155539e+00
9.999999999999994449e-01,-1.145404789684248371e-03,-9.794808579379779445e+00
9.999999999999994449e-01,-1.146177710194324316e-03,-9.794808533796656391e+00
9.999999999999994449e-01,-1.146950630790988116e-03,-9.794808488182784600e+00
9.999999999999994449e-01,-1.147723551474298101e-03,-9.794808442538164073e+00
9.999999999999994449e-01,-1.148496472244312601e-03,-9.794808396862800137e+00
9.999999999999994449e-01,-1.149269393101089946e-03,-9.794808351156687465e+00
9.999999999999994449e-01,-1.150042314044688466e-03,-9.794808305419827832e+00
9.999999999999994449e-01,-1.150815235075166709e-03,-9.794808259652221238e+00
9.999999999999994449e-01,-1.151588156192582786e-03,-9.794808213853865908e+00
9.999999999999994449e-01,-1.152361077396995897e-03,-9.794808168024763617e+00
9.999999999999994449e-01,-1.153133998688463504e-03,-9.794808122164917918e+00
9.999999999999994449e-01,-1.153906920067044152e-03,-9.794808076274318154e+00
9.999999999999994449e-01,-1.154679841532796824e-03,-9.794808030352976758e+00
9.999999999999994449e-01,-1.155452763085779632e-03,-9.794807984400888401e+00
9.999999999999994449e-01,-1.156225684726050473e-03,-9.794807938418049531e+00
9.999999999999994449e-01,-1.156998606453668544e-03,-9.794807892404463701e+00
9.999999999999994449e-01,-1.157771528268691742e-03,-9.794807846360132686e+00
9.999999999999994449e-01,-1.158544450171178396e-03,-9.794807800285054711e+00
9.999999999999994449e-01,-1.159317372161187271e-03,-9.794807754179227999e+00
9.999999999999994449e-01,-1.160090294238776479e-03,-9.794807708042654326e+00
9.999999999999994449e-01,-1.160863216404005001e-03,-9.794807661875333693e+00
9.999999999999994449e-01,-1.161636138656930084e-03,-9.794807615677267876e+00
9.999999999999994449e-01,-1.162409060997611357e-03,-9.794807569448449769e+00
9.999999999999994449e-01,-1.163181983426106285e-03,-9.794807523188888254e+00
9.999999999999994449e-01,-1.163954905942473847e-03,-9.794807476898579779e+00
9.999999999999994449e-01,-1.164727828546772157e-03,-9.794807430577524343e+00
9.999999999999994449e-01,-1.165500751239059761e-03,-9.794807384225720170e+00
9.999999999999994449e-01,-1.166273674019394991e-03,-9.794807337843170814e+00
9.999999999999994449e-01,-1.167046596887835958e-03,-9.794807291429870943e+00
9.999999999999994449e-01,-1.167819519844441427e-03,-9.794807244985827666e+00
9.999999999999994449e-01,-1.168592442889269728e-03,-9.794807198511035651e+00
9.999999999999994449e-01,-1.169365366022379624e-03,-9.794807152005496675e+00
9.999999999999994449e-01,-1.170138289243829012e-03,-9.794807105469210740e+00
9.999999999999994449e-01,-1.170911212553676223e-03,-9.794807058902176067e+00
9.999999999999994449e-01,-1.171684135951979585e-03,-9.794807012304394433e+00
9.999999999999994449e-01,-1.172457059438798297e-03,-9.794806965675865840e+00
9.999999999999994449e-01,-1.173229983014189822e-03,-9.794806919016592062e+00
9.999999999999994449e-01,-1.174002906678213139e-03,-9.794806872326569547e+00
9.999999999999994449e-01,-1.174775830430926362e-03,-9.794806825605800071e+00
9.999999999999994449e-01,-1.175548754272388039e-03,-9.794806778854283635e+00
9.999999999999994449e-01,-1.176321678202656715e-03,-9.794806732072018463e+00
9.999999999999994449e-01,-1.177094602221790288e-03,-9.794806685259006329e+00
9.999999999999994449e-01,-1.177867526329847304e-03,-9.794806638415249012e+00
9.999999999999994449e-01,-1.178640450526886744e-03,-9.794806591540744733e+00
9.999999999999994449e-01,-1.179413374812966287e-03,-9.794806544635489942e+00
9.999999999999994449e-01,-1.180186299188144914e-03,-9.794806497699491743e+00
9.999999999999994449e-01,-1.180959223652480305e-03,-9.794806450732743031e+00
9.999999999999994449e-01,-1.181732148206031657e-03,-9.794806403735249134e+00
9.999999999999994449e-01,-1.182505072848856866e-03,-9.794806356707006501e+00
9.999999999999994449e-01,-1.183277997581014046e-03,-9.794806309648018683e+00
9.999999999999994449e-01,-1.184050922402562610e-03,-9.794806262558283905e+00
9.999999999999994449e-01,-1.184823847313559806e-03,-9.794806215437800390e+00
9.999999999999994449e-01,-1.185596772314065047e-03,-9.794806168286573467e+00
9.999999999999994449e-01,-1.186369697404135578e-03,-9.794806121104596031e+00
9.999999999999994449e-01,-1.187142622583831032e-03,-9.794806073891869858e+00
9.999999999999994449e-01,-1.187915547853209304e-03,-9.794806026648398500e+00
9.999999999999994449e-01,-1.188688473212328508e-03,-9.794805979374178406e+00
9.999999999999994449e-01,-1.189461398661247407e-03,-9.794805932069214904e+00
9.999999999999994449e-01,-1.190234324200023898e-03,-9.794805884733500889e+00
9.999999999999994449e-01,-1.191007249828716962e-03,-9.794805837367039913e+00
9.999999999999994449e-01,-1.191780175547385145e-03,-9.794805789969831977e+00
9.999999999999994449e-01,-1.192553101356085910e-03,-9.794805742541877080e+00
9.999999999999994449e-01,-1.193326027254878454e-03,-9.794805695083177000e+00
9.999999999999994449e-01,-1.194098953243820892e-03,-9.794805647593728182e+00
9.999999999999994449e-01,-1.194871879322971769e-03,-9.794805600073532403e+00
9.999999999999994449e-01,-1.195644805492389415e-03,-9.794805552522586112e+00
